SensorID,DataType,SeqNo,TimeStamp,AccX,AccY,AccZ,GyroX,GyroY,GyroZ
0,255,248,53895,941,2084,1893,1835,1838,1862
0,255,249,53895,944,2070,1879,1835,1839,1863
0,255,250,53895,965,2077,1852,1834,1836,1861
0,255,251,53895,944,2096,1874,1835,1838,1863
0,255,252,53895,955,2088,1878,1835,1839,1862
0,255,253,53895,946,2092,1872,1834,1838,1862
0,255,254,53911,968,2079,1870,1835,1838,1862
0,255,255,53927,932,2067,1864,1834,1837,1863
0,255,0,53942,964,2098,1878,1835,1839,1863
0,255,1,53958,970,2088,1877,1835,1839,1862
0,255,2,53973,970,2084,1884,1834,1837,1861
0,255,3,54005,956,2086,1884,1834,1838,1862
0,255,4,54036,956,2087,1880,1835,1838,1862
0,255,5,54036,934,2079,1877,1835,1838,1861
0,255,6,54067,951,2067,1871,1836,1839,1862
0,255,7,54083,936,2078,1856,1834,1838,1863
0,255,8,54114,971,2078,1855,1834,1838,1861
0,255,9,54114,955,2083,1861,1836,1839,1861
0,255,10,54145,968,2094,1883,1835,1838,1861
0,255,11,54176,941,2080,1856,1834,1838,1861
0,255,12,54176,945,2062,1859,1834,1839,1863
0,255,13,54192,957,2086,1873,1835,1838,1861
0,255,14,54223,958,2090,1879,1835,1839,1862
0,255,15,54254,932,2094,1872,1835,1838,1863
0,255,16,54254,938,2110,1869,1835,1838,1862
0,255,17,54285,948,2088,1859,1836,1839,1863
0,255,18,54285,933,2094,1877,1834,1838,1862
0,255,19,54317,938,2104,1865,1835,1838,1863
0,255,21,54363,940,2083,1859,1834,1838,1862
0,255,22,54379,950,2095,1882,1836,1838,1862
0,255,23,54395,952,2077,1876,1836,1839,1863
0,255,24,54410,947,2091,1864,1834,1838,1862
0,255,25,54441,957,2091,1884,1836,1839,1863
0,255,26,54441,928,2086,1862,1834,1837,1861
0,255,27,54473,946,2091,1869,1835,1838,1862
0,255,28,54504,953,2089,1863,1833,1838,1863
0,255,29,54504,946,2095,1866,1834,1838,1861
0,255,30,54535,951,2079,1866,1836,1839,1862
0,255,31,54566,961,2075,1886,1833,1837,1862
0,255,32,54566,942,2093,1877,1834,1840,1861
0,255,33,54582,950,2091,1873,1835,1838,1862
0,255,34,54613,939,2081,1872,1834,1838,1860
0,255,35,54644,951,2097,1859,1834,1839,1862
0,255,36,54644,933,2100,1880,1835,1839,1863
0,255,37,54675,957,2071,1858,1835,1839,1861
0,255,38,54691,954,2075,1870,1835,1838,1862
0,255,39,54707,949,2076,1862,1835,1838,1862
0,255,40,54738,915,2105,1864,1834,1838,1862
0,255,41,54753,942,2079,1883,1835,1839,1862
0,255,42,54753,952,2079,1886,1834,1837,1861
0,255,43,54785,958,2088,1885,1834,1837,1862
0,255,44,54785,943,2078,1884,1834,1839,1863
0,255,45,54816,958,2092,1846,1835,1838,1862
0,255,46,54863,938,2090,1876,1833,1838,1862
0,255,47,54863,969,2096,1875,1834,1838,1862
0,255,48,54863,951,2090,1874,1834,1838,1862
0,255,49,54909,957,2081,1879,1835,1839,1862
0,255,50,54941,950,2086,1868,1834,1838,1862
0,255,51,54941,954,2089,1866,1835,1838,1862
0,255,52,54972,953,2096,1861,1834,1839,1862
0,255,53,54987,930,2098,1871,1834,1838,1862
0,255,54,54987,934,2083,1882,1833,1838,1862
0,255,55,55034,948,2093,1875,1833,1837,1861
0,255,56,55050,943,2082,1868,1834,1839,1861
0,255,57,55081,973,2075,1867,1835,1839,1862
0,255,58,55081,943,2080,1872,1834,1838,1862
0,255,59,55081,959,2070,1876,1833,1837,1862
0,255,60,55128,940,2077,1849,1833,1839,1862
0,255,61,55128,952,2069,1865,1834,1839,1862
0,255,62,55143,937,2078,1872,1835,1839,1862
0,255,63,55175,956,2085,1867,1834,1837,1862
0,255,64,55206,946,2074,1885,1834,1838,1862
0,255,65,55206,961,2083,1871,1835,1840,1862
0,255,66,55237,936,2068,1884,1834,1839,1862
0,255,67,55253,963,2097,1874,1834,1838,1861
0,255,68,55268,937,2109,1873,1833,1840,1863
0,255,69,55315,965,2085,1866,1834,1838,1861
0,255,70,55315,954,2096,1861,1835,1839,1863
0,255,71,55315,951,2087,1881,1834,1838,1862
0,255,72,55346,946,2078,1863,1834,1839,1862
0,255,73,55377,945,2090,1869,1835,1840,1861
0,255,74,55393,945,2085,1877,1833,1838,1861
0,255,75,55424,947,2096,1852,1833,1838,1861
0,255,76,55424,956,2088,1866,1833,1839,1863
0,255,77,55455,953,2080,1879,1834,1839,1862
0,255,78,55487,955,2093,1870,1834,1839,1861
0,255,79,55487,939,2079,1864,1834,1838,1862
0,255,80,55518,943,2097,1879,1835,1839,1863
0,255,82,55549,932,2086,1879,1833,1839,1861
0,255,83,55549,934,2078,1881,1834,1839,1861
0,255,84,55580,941,2091,1883,1833,1839,1863
0,255,85,55611,948,2059,1870,1833,1839,1862
0,255,86,55627,971,2094,1866,1835,1839,1863
0,255,87,55658,973,2091,1868,1835,1840,1863
0,255,88,55658,944,2089,1853,1833,1839,1861
0,255,89,55689,969,2086,1877,1835,1840,1861
0,255,90,55689,945,2068,1861,1834,1839,1862
0,255,91,55721,935,2086,1887,1835,1839,1863
0,255,92,55752,958,2098,1886,1833,1839,1862
0,255,93,55752,934,2094,1847,1834,1839,1862
0,255,94,55767,944,2082,1879,1835,1839,1862
0,255,95,55799,955,2087,1872,1834,1839,1862
0,255,96,55814,951,2078,1884,1834,1839,1861
0,255,97,55830,947,2092,1867,1834,1840,1861
0,255,98,55877,963,2102,1848,1834,1838,1861
0,255,99,55877,946,2093,1868,1834,1840,1861
0,255,100,55908,963,2085,1841,1833,1839,1862
0,255,101,55939,924,2090,1881,1833,1839,1861
0,255,102,55939,954,2082,1879,1835,1840,1862
0,255,103,55939,942,2078,1856,1833,1838,1862
0,255,104,55970,951,2097,1864,1834,1839,1862
0,255,105,55986,941,2091,1873,1835,1840,1862
0,255,106,56017,947,2080,1879,1834,1838,1861
0,255,107,56048,945,2075,1873,1834,1839,1862
0,255,109,56079,946,2098,1851,1835,1839,1862
0,255,110,56111,942,2098,1866,1834,1839,1862
0,255,111,56111,958,2085,1864,1834,1839,1862
0,255,112,56111,939,2082,1866,1835,1839,1861
0,255,113,56157,945,2083,1878,1835,1840,1861
0,255,114,56173,945,2083,1870,1835,1840,1863
0,255,115,56173,927,2077,1869,1833,1840,1862
0,255,116,56204,950,2085,1877,1834,1840,1863
0,255,117,56251,950,2076,1867,1833,1839,1861
0,255,118,56251,948,2089,1881,1835,1839,1862
0,255,119,56282,942,2081,1841,1835,1841,1862
0,255,120,56282,938,2093,1867,1834,1839,1862
0,255,121,56313,944,2085,1862,1835,1841,1862
0,255,122,56313,932,2070,1862,1834,1839,1861
0,255,123,56345,948,2093,1876,1834,1839,1862
0,255,124,56391,914,2068,1858,1835,1840,1863
0,255,125,56391,966,2071,1868,1834,1839,1862
0,255,126,56391,932,2087,1875,1835,1839,1862
0,255,127,56423,930,2080,1868,1834,1839,1863
0,255,128,56438,946,2075,1869,1834,1839,1862
0,255,129,56454,964,2072,1861,1833,1840,1862
0,255,130,56501,935,2097,1889,1833,1838,1861
0,255,132,56532,943,2084,1879,1833,1840,1863
0,255,133,56563,964,2108,1842,1833,1839,1862
0,255,134,56563,935,2086,1860,1835,1837,1861
0,255,135,56579,961,2074,1874,1833,1838,1864
0,255,136,56610,943,2091,1857,1834,1840,1863
0,255,137,56625,950,2082,1872,1834,1841,1862
0,255,138,56641,924,2091,1889,1833,1838,1861
0,255,139,56657,974,2089,1849,1833,1840,1862
0,255,140,56688,946,2082,1879,1833,1840,1863
0,255,141,56688,959,2075,1860,1833,1839,1863
0,255,142,56719,942,2095,1850,1834,1839,1862
0,255,144,56750,950,2073,1851,1834,1839,1862
0,255,145,56797,947,2102,1877,1834,1840,1862
0,255,146,56797,956,2081,1866,1834,1839,1862
0,255,147,56797,933,2093,1873,1834,1839,1863
0,255,148,56844,953,2085,1875,1834,1840,1864
0,255,149,56875,937,2097,1882,1834,1839,1862
0,255,150,56875,941,2079,1855,1835,1839,1863
0,255,151,56906,935,2089,1869,1831,1839,1863
0,255,152,56906,939,2091,1885,1834,1839,1862
0,255,153,56937,938,2075,1868,1835,1839,1862
0,255,154,56953,935,2077,1883,1833,1838,1861
0,255,155,56984,934,2087,1864,1833,1839,1862
0,255,156,56984,956,2081,1858,1833,1841,1863
0,255,157,57015,955,2086,1854,1834,1840,1863
0,255,158,57015,963,2079,1882,1835,1839,1863
0,255,159,57047,951,2070,1870,1834,1839,1863
0,255,160,57078,967,2097,1849,1834,1839,1862
0,255,161,57093,944,2095,1885,1835,1841,1861
0,255,162,57125,941,2082,1874,1834,1838,1860
0,255,163,57125,932,2062,1862,1833,1839,1862
0,255,164,57140,961,2080,1862,1833,1841,1863
0,255,165,57171,937,2079,1879,1833,1839,1862
0,255,166,57187,961,2087,1876,1834,1840,1862
0,255,167,57218,923,2084,1868,1833,1839,1863
0,255,168,57218,951,2102,1859,1834,1839,1862
0,255,169,57249,944,2088,1858,1834,1840,1863
0,255,170,57249,932,2090,1874,1834,1839,1861
0,255,171,57296,943,2078,1848,1833,1840,1862
0,255,172,57296,941,2075,1857,1834,1839,1863
0,255,173,57327,948,2083,1858,1833,1839,1862
0,255,174,57359,959,2079,1892,1833,1839,1863
0,255,175,57359,956,2079,1871,1834,1839,1863
0,255,176,57374,935,2072,1875,1833,1839,1862
0,255,177,57405,923,2080,1862,1834,1840,1862
0,255,178,57421,956,2074,1875,1833,1839,1862
0,255,179,57452,934,2083,1866,1833,1839,1862
0,255,180,57452,951,2086,1856,1832,1839,1863
0,255,181,57499,930,2085,1875,1833,1839,1862
0,255,182,57499,932,2073,1865,1835,1840,1863
0,255,183,57530,946,2094,1873,1833,1839,1862
0,255,184,57530,944,2073,1867,1834,1839,1862
0,255,185,57561,949,2079,1881,1836,1840,1863
0,255,186,57561,942,2071,1884,1833,1838,1861
0,255,187,57593,933,2085,1870,1833,1839,1862
0,255,189,57624,955,2077,1871,1834,1839,1862
0,255,190,57655,930,2083,1863,1835,1841,1863
0,255,191,57671,929,2098,1854,1832,1839,1861
0,255,193,57702,948,2088,1879,1836,1841,1864
0,255,194,57733,965,2083,1889,1835,1841,1863
0,255,195,57749,959,2100,1886,1833,1839,1862
0,255,196,57780,955,2071,1867,1833,1839,1863
0,255,197,57780,953,2093,1866,1833,1839,1862
0,255,198,57811,954,2081,1872,1834,1841,1863
0,255,199,57811,948,2070,1886,1834,1839,1863
0,255,200,57842,928,2097,1875,1834,1839,1862
0,255,201,57873,946,2082,1875,1835,1840,1863
0,255,202,57873,939,2099,1888,1833,1839,1862
0,255,203,57920,956,2124,1871,1834,1840,1862
0,255,204,57920,957,2081,1876,1832,1839,1863
0,255,205,57936,952,2085,1856,1834,1839,1862
0,255,206,57983,929,2086,1852,1834,1840,1862
0,255,207,57998,952,2090,1870,1834,1838,1861
0,255,208,57998,931,2068,1867,1833,1839,1862
0,255,209,58029,952,2081,1867,1834,1841,1863
0,255,210,58061,971,2094,1880,1835,1841,1863
0,255,212,58092,942,2090,1871,1835,1840,1861
0,255,213,58123,959,2077,1875,1833,1839,1862
0,255,214,58123,950,2072,1868,1835,1840,1863
0,255,215,58154,945,2091,1871,1833,1839,1861
0,255,216,58170,929,2095,1881,1834,1839,1862
0,255,217,58185,942,2074,1858,1834,1841,1862
0,255,218,58185,944,2069,1868,1833,1837,1861
0,255,219,58217,951,2093,1854,1834,1840,1862
0,255,220,58263,944,2084,1868,1833,1839,1863
0,255,221,58263,954,2064,1864,1833,1839,1862
0,255,222,58295,932,2059,1871,1835,1840,1863
0,255,223,58295,963,2091,1892,1834,1840,1862
0,255,224,58326,938,2092,1871,1833,1839,1862
0,255,225,58326,950,2077,1869,1835,1840,1862
0,255,226,58357,940,2074,1855,1831,1839,1863
0,255,227,58388,944,2088,1878,1833,1839,1861
0,255,228,58388,946,2074,1855,1833,1839,1863
0,255,229,58419,943,2093,1889,1834,1840,1862
0,255,230,58419,957,2082,1855,1834,1840,1862
0,255,231,58451,944,2078,1860,1834,1839,1862
0,255,232,58482,940,2106,1873,1835,1839,1862
0,255,233,58497,953,2090,1871,1835,1840,1863
0,255,234,58513,947,2090,1881,1835,1839,1862
0,255,235,58529,931,2088,1860,1833,1839,1862
0,255,236,58560,955,2083,1858,1834,1839,1864
0,255,237,58560,946,2072,1864,1834,1839,1862
0,255,238,58607,940,2074,1871,1834,1840,1863
0,255,239,58638,969,2092,1865,1832,1838,1861
0,255,240,58638,945,2092,1877,1834,1839,1863
0,255,241,58653,946,2077,1876,1835,1840,1863
0,255,242,58685,950,2075,1872,1835,1841,1863
0,255,243,58685,930,2092,1863,1832,1839,1862
0,255,245,58731,937,2075,1884,1833,1839,1862
0,255,246,58747,952,2074,1878,1834,1840,1863
0,255,247,58778,954,2088,1878,1832,1839,1861
0,255,248,58794,945,2087,1867,1834,1838,1862
0,255,249,58825,930,2085,1879,1833,1840,1864
0,255,250,58825,952,2094,1873,1833,1839,1862
0,255,251,58856,928,2083,1868,1834,1839,1862
0,255,252,58856,933,2089,1864,1832,1838,1863
0,255,253,58887,941,2074,1879,1834,1840,1863
0,255,254,58903,953,2104,1871,1835,1840,1862
0,255,255,58934,925,2088,1857,1835,1840,1862
0,255,1,58965,936,2086,1863,1834,1840,1864
0,255,2,58997,950,2100,1862,1833,1839,1862
0,255,3,58997,942,2090,1869,1834,1839,1862
0,255,4,59028,959,2076,1878,1834,1839,1863
0,255,5,59043,953,2079,1847,1834,1839,1862
0,255,6,59075,962,2101,1872,1835,1840,1862
0,255,7,59075,944,2054,1860,1833,1839,1862
0,255,8,59106,946,2115,1882,1834,1839,1863
0,255,9,59137,934,2068,1876,1833,1840,1863
0,255,10,59137,946,2105,1868,1833,1839,1862
0,255,11,59184,944,2085,1883,1834,1839,1862
0,255,12,59184,949,2078,1852,1834,1839,1863
0,255,13,59184,950,2084,1860,1834,1839,1862
0,255,14,59215,966,2086,1847,1834,1840,1863
0,255,15,59262,940,2075,1875,1834,1839,1862
0,255,16,59262,941,2087,1871,1834,1839,1863
0,255,17,59293,950,2086,1869,1832,1839,1863
0,255,18,59293,958,2085,1882,1834,1839,1862
0,255,19,59324,956,2085,1841,1834,1839,1863
0,255,20,59340,955,2090,1881,1833,1839,1863
0,255,21,59371,943,2071,1872,1834,1839,1862
0,255,22,59371,939,2090,1869,1834,1840,1862
0,255,23,59418,952,2068,1862,1832,1838,1861
0,255,24,59418,940,2080,1879,1834,1839,1862
0,255,25,59433,955,2079,1873,1833,1840,1863
0,255,26,59465,944,2074,1879,1834,1839,1862
0,255,27,59465,943,2099,1873,1833,1839,1861
0,255,28,59496,928,2083,1866,1833,1840,1863
0,255,29,59496,963,2083,1872,1833,1839,1862
0,255,30,59527,942,2093,1857,1835,1840,1862
0,255,31,59558,948,2081,1871,1833,1838,1861
0,255,32,59558,941,2079,1876,1833,1840,1862
0,255,33,59589,957,2079,1859,1833,1840,1863
0,255,34,59621,946,2091,1872,1834,1839,1861
0,255,35,59621,938,2087,1883,1834,1839,1862
0,255,36,59652,930,2075,1879,1835,1841,1864
0,255,37,59667,950,2073,1871,1833,1839,1862
0,255,38,59683,935,2089,1866,1834,1840,1863
0,255,39,59699,933,2064,1862,1833,1839,1863
0,255,40,59730,959,2090,1854,1833,1840,1862
0,255,41,59745,951,2100,1868,1833,1839,1863
0,255,42,59761,943,2091,1873,1833,1839,1862
0,255,43,59792,944,2093,1864,1834,1839,1862
0,255,44,59792,946,2090,1865,1832,1838,1862
0,255,45,59823,955,2104,1871,1833,1839,1862
0,255,46,59855,946,2102,1879,1834,1839,1862
0,255,47,59870,952,2073,1873,1834,1839,1861
0,255,48,59870,939,2078,1863,1833,1838,1862
0,255,49,59901,945,2079,1854,1833,1839,1863
0,255,50,59933,964,2099,1877,1833,1839,1862
0,255,51,59933,962,2095,1869,1835,1839,1863
0,255,52,59964,930,2094,1868,1834,1840,1864
0,255,53,59979,961,2081,1878,1834,1839,1862
0,255,54,59995,950,2084,1859,1835,1840,1862
0,255,55,26,944,2090,1842,1833,1839,1862
0,255,56,26,953,2094,1871,1834,1840,1863
0,255,57,57,946,2094,1873,1833,1840,1863
0,255,58,57,944,2071,1873,1834,1839,1862
0,255,59,89,943,2075,1874,1835,1839,1863
0,255,60,135,933,2082,1855,1835,1840,1863
0,255,61,135,934,2076,1881,1834,1840,1862
0,255,62,135,955,2100,1874,1835,1840,1862
0,255,63,167,940,2071,1870,1834,1839,1862
0,255,64,182,940,2080,1882,1833,1840,1862
0,255,65,213,962,2082,1861,1834,1840,1863
0,255,66,229,945,2081,1874,1833,1839,1862
0,255,67,260,946,2078,1861,1835,1839,1863
0,255,68,260,951,2080,1867,1833,1839,1863
0,255,69,291,956,2090,1857,1835,1840,1863
0,255,70,307,962,2085,1887,1835,1840,1862
0,255,72,369,951,2095,1868,1833,1840,1863
0,255,73,369,954,2082,1867,1833,1840,1864
0,255,74,385,943,2082,1852,1833,1839,1862
0,255,75,432,949,2073,1867,1834,1839,1863
0,255,76,432,941,2095,1870,1834,1839,1863
0,255,77,463,952,2088,1866,1834,1840,1863
0,255,78,479,955,2091,1877,1834,1840,1862
0,255,79,494,936,2099,1871,1833,1839,1862
0,255,80,494,943,2097,1850,1834,1840,1862
0,255,81,525,961,2065,1877,1834,1840,1863
0,255,82,541,961,2079,1874,1834,1839,1862
0,255,83,557,923,2077,1864,1834,1839,1863
0,255,84,588,949,2083,1868,1832,1838,1862
0,255,85,603,953,2091,1875,1833,1839,1863
0,255,86,635,947,2073,1850,1835,1840,1863
0,255,87,666,945,2096,1877,1834,1838,1861
0,255,88,666,968,2097,1879,1834,1839,1862
0,255,89,697,942,2074,1853,1833,1839,1863
0,255,91,728,959,2063,1869,1834,1839,1863
0,255,92,744,955,2073,1877,1832,1838,1863
0,255,93,775,944,2098,1855,1834,1842,1864
0,255,94,775,955,2077,1894,1835,1841,1863
0,255,95,806,933,2092,1862,1834,1839,1860
0,255,96,806,946,2082,1863,1833,1840,1862
0,255,97,837,939,2078,1871,1834,1840,1863
0,255,98,869,964,2092,1856,1834,1839,1861
0,255,99,884,945,2072,1857,1835,1839,1863
0,255,100,900,938,2070,1865,1834,1841,1863
0,255,101,947,953,2072,1857,1832,1839,1862
0,255,102,947,963,2076,1870,1834,1840,1861
0,255,103,947,943,2085,1862,1833,1838,1861
0,255,104,993,935,2066,1867,1834,1839,1863
0,255,105,993,941,2090,1865,1833,1840,1863
0,255,106,1025,956,2092,1865,1834,1841,1863
0,255,107,1056,937,2080,1859,1834,1839,1863
0,255,108,1056,949,2077,1865,1833,1839,1863
0,255,109,1056,941,2076,1879,1834,1839,1863
0,255,110,1087,948,2078,1868,1834,1840,1861
0,255,111,1103,950,2103,1886,1833,1839,1862
0,255,113,1165,957,2078,1866,1834,1840,1863
0,255,114,1165,942,2093,1865,1834,1839,1862
0,255,115,1196,949,2097,1871,1835,1840,1863
0,255,116,1227,949,2068,1856,1832,1838,1864
0,255,117,1227,954,2088,1873,1834,1839,1862
0,255,118,1243,946,2074,1867,1833,1839,1862
0,255,119,1274,963,2078,1889,1833,1839,1862
0,255,120,1305,932,2074,1862,1833,1840,1862
0,255,121,1305,959,2084,1883,1833,1840,1864
0,255,122,1337,949,2088,1853,1833,1839,1862
0,255,123,1337,939,2080,1873,1835,1839,1863
0,255,124,1368,932,2112,1875,1835,1841,1863
0,255,125,1383,952,2082,1869,1834,1839,1862
0,255,126,1399,936,2081,1890,1833,1840,1862
0,255,127,1430,952,2090,1870,1834,1839,1862
0,255,128,1430,946,2089,1876,1833,1840,1862
0,255,129,1461,952,2089,1866,1833,1840,1863
0,255,130,1493,920,2088,1864,1835,1841,1864
0,255,131,1508,937,2088,1879,1835,1839,1863
0,255,132,1508,951,2075,1877,1833,1840,1864
0,255,133,1539,968,2083,1884,1834,1839,1862
0,255,134,1555,931,2081,1870,1834,1840,1862
0,255,135,1586,936,2067,1859,1833,1839,1862
0,255,136,1602,935,2070,1879,1834,1840,1863
0,255,137,1617,947,2092,1870,1833,1840,1863
0,255,138,1633,941,2084,1866,1835,1841,1864
0,255,139,1664,958,2094,1873,1835,1839,1863
0,255,140,1680,927,2086,1860,1833,1840,1863
0,255,141,1711,938,2076,1866,1833,1839,1862
0,255,142,1742,944,2101,1885,1833,1840,1862
0,255,143,1742,955,2097,1877,1833,1839,1862
0,255,144,1742,934,2085,1876,1834,1840,1862
0,255,145,1773,932,2088,1870,1832,1840,1863
0,255,146,1789,928,2079,1890,1833,1839,1862
0,255,147,1820,956,2073,1872,1834,1839,1863
0,255,148,1836,937,2091,1863,1833,1839,1863
0,255,149,1867,942,2095,1855,1833,1839,1862
0,255,151,1898,943,2080,1868,1833,1839,1862
0,255,152,1914,930,2095,1861,1833,1840,1862
0,255,153,1945,936,2085,1877,1833,1840,1863
0,255,154,1945,947,2088,1852,1833,1839,1863
0,255,155,1976,947,2080,1873,1834,1840,1863
0,255,157,2007,946,2077,1876,1834,1839,1862
0,255,158,2039,953,2073,1875,1834,1840,1863
0,255,159,2039,944,2089,1874,1833,1838,1861
0,255,160,2070,955,2073,1872,1834,1840,1862
0,255,161,2070,942,2077,1857,1833,1840,1863
0,255,162,2117,923,2090,1882,1834,1839,1863
0,255,163,2117,943,2094,1853,1834,1839,1863
0,255,164,2148,931,2080,1887,1834,1839,1863
0,255,165,2179,949,2089,1853,1834,1839,1862
0,255,166,2179,958,2079,1882,1834,1840,1861
0,255,167,2195,945,2070,1881,1833,1839,1862
0,255,168,2226,957,2082,1862,1833,1839,1862
0,255,169,2226,959,2085,1868,1833,1839,1863
0,255,170,2257,941,2075,1854,1833,1839,1862
0,255,171,2288,942,2081,1864,1835,1839,1863
0,255,172,2304,933,2066,1860,1831,1839,1863
0,255,173,2319,935,2087,1882,1834,1839,1863
0,255,174,2351,950,2085,1882,1834,1841,1861
0,255,175,2366,944,2072,1857,1833,1839,1862
0,255,176,2397,958,2086,1885,1833,1839,1863
0,255,177,2397,953,2088,1865,1833,1839,1863
0,255,178,2429,950,2097,1866,1834,1841,1864
0,255,179,2429,937,2063,1856,1834,1839,1863
0,255,180,2460,954,2085,1865,1833,1840,1863
0,255,181,2460,954,2072,1881,1834,1839,1862
0,255,182,2491,962,2101,1871,1834,1839,1861
0,255,183,2538,926,2070,1863,1833,1839,1862
0,255,184,2538,957,2073,1865,1833,1839,1862
0,255,185,2569,955,2091,1876,1833,1839,1863
0,255,186,2569,949,2079,1854,1834,1839,1862
0,255,187,2600,952,2095,1879,1834,1840,1863
0,255,188,2600,947,2084,1873,1832,1838,1863
0,255,189,2631,955,2078,1894,1834,1839,1861
0,255,190,2647,956,2087,1875,1834,1840,1862
0,255,191,2678,952,2104,1867,1834,1839,1862
0,255,193,2709,956,2058,1859,1833,1839,1863
0,255,194,2741,963,2089,1863,1833,1839,1862
0,255,195,2741,951,2081,1883,1834,1840,1863
0,255,196,2772,974,2071,1884,1834,1839,1862
0,255,197,2787,941,2087,1885,1835,1839,1862
0,255,198,2803,928,2080,1865,1834,1840,1861
0,255,199,2834,959,2067,1861,1833,1839,1861
0,255,200,2850,956,2080,1864,1834,1839,1862
0,255,201,2865,955,2082,1872,1833,1839,1863
0,255,202,2881,955,2074,1878,1833,1839,1862
0,255,203,2912,956,2078,1867,1835,1840,1863
0,255,204,2912,945,2081,1869,1834,1839,1863
0,255,205,2959,954,2090,1857,1834,1839,1862
0,255,206,2975,950,2077,1859,1834,1840,1863
0,255,207,3006,947,2086,1868,1833,1838,1861
0,255,208,3006,948,2099,1859,1833,1839,1862
0,255,209,3037,955,2086,1876,1833,1839,1863
0,255,210,3053,939,2079,1888,1833,1839,1862
0,255,211,3068,959,2091,1866,1835,1837,1862
0,255,212,3084,936,2084,1877,1834,1838,1862
0,255,213,3115,950,2063,1854,1834,1840,1863
0,255,214,3115,931,2072,1850,1836,1840,1863
0,255,215,3146,953,2093,1867,1833,1839,1862
0,255,216,3177,936,2090,1865,1831,1839,1862
0,255,217,3193,954,2086,1855,1834,1839,1863
0,255,218,3193,936,2069,1866,1834,1839,1862
0,255,219,3209,963,2090,1860,1834,1840,1862
0,255,220,3255,951,2082,1893,1834,1839,1862
0,255,221,3255,968,2086,1852,1834,1839,1862
0,255,222,3287,940,2099,1864,1834,1840,1863
0,255,223,3287,951,2097,1861,1834,1839,1862
0,255,224,3318,928,2065,1868,1834,1839,1862
0,255,225,3349,952,2076,1858,1832,1839,1863
0,255,226,3349,951,2082,1871,1834,1839,1862
0,255,227,3380,936,2099,1869,1835,1840,1863
0,255,228,3396,940,2065,1875,1834,1839,1862
0,255,229,3427,952,2076,1862,1832,1839,1864
0,255,230,3427,966,2091,1873,1836,1840,1863
0,255,231,3458,941,2089,1855,1834,1839,1862
0,255,232,3474,930,2076,1889,1833,1839,1862
0,255,233,3505,933,2088,1871,1835,1839,1863
0,255,234,3505,947,2080,1868,1833,1839,1863
0,255,235,3536,955,2077,1877,1834,1840,1863
0,255,236,3536,936,2080,1874,1833,1838,1861
0,255,237,3567,949,2067,1870,1835,1839,1862
0,255,238,3614,943,2071,1868,1835,1840,1862
0,255,239,3614,941,2087,1874,1834,1840,1862
0,255,240,3630,941,2081,1863,1835,1840,1863
0,255,241,3661,954,2069,1866,1833,1839,1863
0,255,242,3692,943,2085,1868,1833,1839,1862
0,255,243,3692,950,2087,1884,1835,1840,1863
0,255,244,3723,943,2071,1874,1832,1838,1861
