SensorID,DataType,SeqNo,TimeStamp,AccX,AccY,AccZ,GyroX,GyroY,GyroZ
0,255,11,3659,1924,1110,1801,1835,1839,1863
0,255,12,3659,1938,1083,1813,1834,1838,1864
0,255,13,3659,1937,1110,1813,1834,1838,1862
0,255,14,3659,1943,1102,1826,1836,1838,1863
0,255,15,3659,1949,1120,1807,1835,1838,1862
0,255,16,3659,1944,1103,1819,1834,1838,1862
0,255,17,3674,1922,1107,1808,1835,1838,1862
0,255,18,3674,1946,1100,1804,1835,1838,1862
0,255,19,3706,1944,1113,1795,1836,1837,1862
0,255,20,3706,1944,1092,1790,1834,1839,1863
0,255,21,3752,1944,1112,1797,1834,1838,1863
0,255,22,3752,1937,1093,1797,1835,1839,1863
0,255,23,3784,1923,1100,1824,1835,1838,1862
0,255,24,3799,1927,1089,1809,1836,1838,1862
0,255,25,3815,1940,1108,1828,1835,1839,1863
0,255,26,3830,1949,1096,1835,1835,1837,1862
0,255,27,3862,1943,1112,1792,1835,1838,1862
0,255,28,3862,1948,1096,1799,1833,1839,1863
0,255,29,3893,1928,1108,1810,1834,1838,1862
0,255,30,3924,1932,1098,1816,1835,1839,1863
0,255,31,3940,1938,1100,1815,1834,1836,1861
0,255,32,3955,1938,1099,1810,1834,1837,1863
0,255,33,3971,1944,1096,1805,1836,1839,1863
0,255,34,4002,1959,1110,1821,1835,1838,1862
0,255,35,4002,1937,1094,1826,1835,1839,1862
0,255,36,4033,1942,1096,1828,1834,1839,1863
0,255,37,4064,1926,1100,1821,1834,1838,1862
0,255,38,4064,1950,1097,1809,1836,1837,1862
0,255,39,4096,1932,1105,1809,1836,1839,1863
0,255,40,4111,1948,1095,1824,1835,1838,1862
0,255,41,4142,1940,1102,1819,1836,1839,1863
0,255,42,4142,1946,1121,1833,1834,1838,1861
0,255,43,4174,1932,1099,1828,1835,1839,1862
0,255,44,4189,1953,1109,1800,1834,1837,1863
0,255,45,4189,1951,1107,1824,1834,1835,1862
0,255,46,4220,1942,1104,1821,1836,1839,1863
0,255,47,4236,1951,1110,1804,1834,1838,1862
0,255,48,4267,1940,1097,1833,1835,1838,1862
0,255,49,4283,1936,1103,1808,1835,1837,1862
0,255,50,4298,1933,1107,1809,1834,1838,1862
0,255,51,4314,1941,1093,1822,1835,1838,1862
0,255,52,4361,1955,1103,1826,1833,1837,1863
0,255,53,4361,1938,1092,1814,1834,1838,1862
0,255,54,4392,1944,1090,1810,1835,1839,1863
0,255,55,4392,1940,1093,1808,1833,1837,1861
0,255,56,4423,1929,1106,1817,1835,1838,1863
0,255,57,4423,1940,1093,1814,1836,1839,1863
0,255,58,4454,1944,1097,1822,1834,1838,1862
0,255,59,4486,1932,1107,1817,1835,1839,1863
0,255,60,4501,1933,1111,1808,1834,1838,1864
0,255,61,4532,1940,1096,1801,1834,1839,1862
0,255,62,4532,1945,1115,1827,1835,1838,1862
0,255,63,4564,1923,1097,1822,1833,1837,1861
0,255,64,4564,1939,1121,1815,1835,1838,1861
0,255,65,4610,1968,1069,1809,1835,1839,1863
0,255,66,4610,1940,1101,1806,1835,1838,1861
0,255,67,4642,1932,1096,1819,1835,1839,1862
0,255,68,4657,1933,1119,1819,1834,1838,1863
0,255,69,4688,1934,1093,1812,1835,1840,1863
0,255,70,4688,1928,1110,1816,1835,1839,1861
0,255,71,4735,1927,1087,1799,1835,1839,1862
0,255,72,4735,1950,1106,1824,1835,1838,1862
0,255,73,4751,1949,1101,1823,1834,1839,1863
0,255,74,4782,1940,1118,1804,1834,1838,1862
0,255,75,4813,1934,1108,1817,1833,1838,1862
0,255,76,4813,1955,1108,1808,1834,1838,1863
0,255,77,4813,1950,1101,1827,1834,1838,1862
0,255,78,4844,1940,1097,1838,1835,1839,1862
0,255,79,4876,1947,1098,1814,1835,1840,1863
0,255,80,4891,1934,1101,1794,1835,1838,1862
0,255,81,4907,1921,1092,1825,1834,1840,1863
0,255,82,4922,1947,1110,1831,1834,1838,1862
0,255,83,4954,1932,1108,1820,1832,1838,1862
0,255,84,4969,1956,1103,1801,1833,1837,1863
0,255,85,5000,1935,1096,1816,1834,1839,1862
0,255,86,5000,1939,1102,1815,1835,1839,1862
0,255,87,5032,1941,1107,1819,1834,1839,1861
0,255,88,5063,1956,1092,1801,1835,1838,1862
0,255,89,5063,1942,1112,1826,1833,1840,1864
0,255,90,5094,1941,1091,1801,1835,1839,1862
0,255,91,5125,1934,1104,1804,1834,1838,1862
0,255,92,5141,1937,1095,1823,1834,1838,1863
0,255,93,5141,1932,1103,1815,1834,1839,1862
0,255,94,5172,1943,1104,1807,1835,1839,1863
0,255,95,5172,1935,1120,1808,1834,1838,1861
0,255,96,5203,1930,1100,1813,1834,1838,1863
0,255,97,5234,1942,1113,1811,1833,1839,1863
0,255,98,5250,1936,1091,1825,1834,1839,1861
0,255,99,5250,1941,1114,1793,1834,1838,1862
0,255,100,5297,1933,1096,1808,1833,1838,1863
0,255,101,5328,1956,1093,1823,1834,1839,1862
0,255,102,5328,1942,1095,1817,1835,1840,1863
0,255,103,5344,1943,1088,1798,1834,1838,1861
0,255,104,5375,1940,1112,1817,1834,1840,1863
0,255,105,5375,1936,1106,1797,1834,1840,1863
0,255,106,5406,1948,1109,1809,1835,1839,1862
0,255,107,5437,1936,1095,1825,1834,1839,1861
0,255,108,5437,1926,1099,1800,1834,1839,1863
0,255,109,5453,1940,1111,1797,1834,1839,1862
0,255,110,5468,1943,1087,1814,1835,1840,1863
0,255,111,5484,1940,1081,1803,1834,1838,1861
0,255,112,5515,1940,1100,1816,1834,1839,1863
0,255,113,5546,1935,1103,1808,1835,1840,1862
0,255,114,5546,1951,1108,1785,1834,1839,1861
0,255,115,5578,1923,1100,1809,1834,1839,1863
0,255,116,5593,1937,1099,1791,1834,1839,1863
0,255,117,5624,1945,1104,1811,1834,1839,1861
0,255,118,5624,1940,1094,1799,1834,1840,1862
0,255,119,5656,1931,1112,1821,1834,1839,1862
0,255,120,5687,1950,1111,1812,1834,1839,1862
0,255,121,5687,1924,1104,1797,1834,1840,1863
0,255,122,5718,1956,1105,1816,1835,1840,1863
0,255,123,5734,1932,1123,1807,1834,1839,1862
0,255,124,5749,1947,1100,1796,1832,1838,1863
0,255,126,5796,1942,1092,1821,1834,1840,1862
0,255,127,5812,1938,1104,1817,1834,1839,1862
0,255,128,5843,1952,1096,1822,1834,1839,1861
0,255,129,5843,1938,1115,1800,1832,1841,1864
0,255,130,5874,1926,1102,1806,1835,1839,1863
0,255,131,5874,1940,1095,1806,1834,1839,1862
0,255,132,5905,1938,1101,1823,1833,1839,1863
0,255,133,5936,1934,1119,1812,1833,1839,1862
0,255,134,5936,1936,1105,1808,1835,1840,1862
0,255,135,5983,1938,1095,1819,1835,1841,1863
0,255,136,5983,1940,1112,1800,1834,1840,1862
0,255,137,5999,1936,1095,1825,1833,1839,1863
0,255,138,6030,1934,1109,1807,1834,1839,1862
0,255,139,6061,1931,1097,1790,1835,1839,1863
0,255,140,6061,1933,1099,1802,1834,1839,1863
0,255,141,6077,1944,1104,1833,1834,1839,1863
0,255,142,6092,1939,1111,1805,1835,1840,1863
0,255,143,6108,1960,1098,1813,1835,1841,1863
0,255,144,6139,1948,1108,1796,1834,1839,1863
0,255,145,6155,1941,1090,1788,1833,1841,1863
0,255,146,6186,1937,1106,1796,1834,1839,1862
0,255,147,6217,1959,1095,1816,1835,1839,1863
0,255,148,6217,1950,1114,1820,1834,1839,1863
0,255,149,6248,1940,1101,1786,1833,1837,1861
0,255,150,6248,1951,1112,1819,1835,1841,1862
0,255,151,6280,1956,1101,1809,1835,1840,1864
0,255,152,6295,1948,1113,1800,1834,1840,1862
0,255,153,6326,1936,1090,1821,1834,1840,1864
0,255,155,6373,1962,1101,1803,1835,1839,1863
0,255,156,6373,1943,1085,1809,1833,1838,1862
0,255,157,6404,1947,1116,1815,1834,1839,1864
0,255,158,6436,1930,1094,1807,1834,1840,1862
0,255,159,6436,1936,1108,1812,1833,1839,1863
0,255,160,6436,1951,1105,1807,1834,1840,1863
0,255,161,6467,1943,1096,1810,1834,1840,1863
0,255,162,6498,1939,1106,1821,1834,1839,1862
0,255,163,6498,1947,1101,1799,1834,1839,1863
0,255,164,6529,1930,1113,1797,1833,1837,1862
0,255,165,6545,1946,1091,1805,1833,1839,1862
0,255,166,6576,1928,1092,1801,1835,1840,1862
0,255,167,6607,1934,1104,1807,1834,1839,1862
0,255,168,6607,1947,1102,1804,1834,1839,1863
0,255,169,6607,1954,1089,1799,1835,1839,1862
0,255,170,6638,1945,1089,1804,1833,1839,1861
0,255,171,6685,1933,1126,1810,1835,1840,1863
0,255,172,6685,1934,1089,1822,1834,1839,1863
0,255,173,6701,1923,1099,1798,1834,1839,1863
0,255,174,6716,1940,1110,1816,1835,1840,1863
0,255,175,6748,1943,1087,1807,1833,1838,1861
0,255,176,6779,1942,1098,1811,1834,1840,1863
0,255,177,6779,1945,1101,1802,1834,1840,1863
0,255,178,6810,1936,1090,1803,1834,1840,1862
0,255,179,6810,1934,1100,1836,1834,1839,1863
0,255,180,6841,1938,1102,1817,1834,1839,1863
0,255,181,6872,1946,1105,1808,1834,1842,1863
0,255,182,6872,1944,1094,1808,1834,1840,1863
0,255,184,6935,1939,1087,1803,1833,1840,1862
0,255,185,6935,1953,1119,1800,1834,1840,1863
0,255,186,6966,1958,1075,1821,1834,1839,1863
0,255,187,6982,1941,1092,1835,1834,1839,1863
0,255,188,6997,1937,1088,1819,1835,1840,1863
0,255,189,7013,1936,1105,1806,1833,1839,1862
0,255,190,7044,1932,1098,1824,1835,1841,1862
0,255,191,7044,1949,1101,1816,1833,1838,1861
0,255,193,7106,1944,1103,1819,1835,1840,1863
0,255,194,7122,1930,1113,1815,1834,1839,1861
0,255,195,7122,1944,1107,1798,1835,1840,1863
0,255,196,7169,1948,1104,1834,1833,1838,1864
0,255,197,7184,1940,1108,1818,1834,1839,1862
0,255,198,7200,1953,1099,1826,1834,1840,1861
0,255,199,7216,1938,1108,1805,1834,1839,1861
0,255,200,7247,1945,1096,1822,1834,1840,1864
0,255,201,7247,1944,1093,1829,1834,1840,1863
0,255,202,7278,1920,1114,1819,1834,1840,1862
0,255,203,7309,1941,1104,1814,1835,1839,1863
0,255,204,7309,1934,1103,1808,1834,1839,1864
0,255,205,7325,1948,1100,1798,1834,1839,1863
0,255,206,7340,1957,1105,1820,1835,1840,1862
0,255,207,7356,1942,1086,1797,1835,1840,1863
0,255,208,7387,1939,1106,1809,1834,1839,1862
0,255,209,7418,1932,1105,1812,1835,1840,1863
0,255,210,7434,1914,1099,1811,1834,1839,1861
0,255,211,7450,1962,1095,1819,1835,1840,1863
0,255,212,7465,1931,1100,1814,1834,1839,1864
0,255,213,7496,1942,1108,1804,1833,1839,1862
0,255,214,7496,1948,1095,1832,1834,1839,1862
0,255,215,7528,1941,1086,1801,1834,1839,1862
0,255,216,7543,1935,1104,1821,1834,1839,1863
0,255,217,7574,1943,1107,1805,1834,1840,1864
0,255,218,7574,1945,1108,1797,1834,1839,1860
0,255,219,7606,1944,1100,1821,1835,1840,1863
0,255,220,7621,1944,1097,1807,1833,1838,1864
0,255,221,7637,1932,1105,1799,1834,1839,1862
0,255,222,7668,1940,1103,1801,1834,1841,1862
0,255,223,7684,1956,1082,1804,1834,1840,1862
0,255,224,7715,1925,1107,1824,1833,1839,1862
0,255,225,7715,1935,1084,1805,1833,1840,1863
0,255,226,7746,1936,1104,1816,1835,1840,1864
0,255,227,7746,1951,1106,1821,1835,1839,1863
0,255,228,7777,1929,1114,1811,1834,1839,1863
0,255,229,7793,1939,1107,1818,1834,1839,1862
0,255,230,7808,1931,1105,1818,1835,1840,1862
0,255,231,7855,1930,1093,1815,1834,1837,1862
0,255,232,7886,1945,1104,1797,1834,1840,1862
0,255,233,7886,1940,1105,1818,1833,1840,1863
0,255,234,7886,1940,1096,1806,1833,1839,1862
0,255,235,7918,1966,1095,1823,1834,1840,1863
0,255,236,7918,1945,1121,1830,1834,1840,1863
0,255,237,7949,1953,1100,1820,1834,1839,1863
0,255,238,7980,1948,1117,1804,1834,1840,1863
0,255,239,7980,1924,1083,1799,1833,1839,1862
0,255,240,8011,1947,1098,1796,1833,1839,1862
0,255,241,8042,1930,1105,1812,1836,1840,1862
0,255,242,8058,1938,1107,1803,1834,1839,1862
0,255,243,8074,1950,1114,1834,1834,1840,1863
0,255,244,8089,1929,1100,1815,1834,1839,1862
0,255,245,8120,1941,1113,1793,1834,1839,1862
0,255,246,8120,1959,1114,1797,1835,1840,1863
0,255,247,8152,1928,1093,1796,1834,1839,1863
0,255,248,8183,1935,1110,1816,1833,1840,1862
0,255,249,8183,1939,1100,1817,1834,1840,1864
0,255,250,8214,1936,1102,1815,1834,1841,1864
0,255,251,8230,1924,1095,1800,1834,1839,1863
0,255,252,8261,1950,1110,1810,1835,1840,1864
0,255,253,8261,1942,1102,1808,1835,1839,1863
0,255,254,8292,1939,1100,1794,1834,1840,1864
0,255,255,8323,1928,1117,1820,1833,1838,1861
0,255,0,8323,1952,1099,1827,1834,1840,1862
0,255,1,8354,1942,1107,1841,1833,1840,1863
0,255,2,8386,1949,1095,1804,1834,1840,1863
0,255,3,8386,1951,1116,1800,1835,1839,1863
0,255,4,8417,1927,1089,1815,1831,1839,1863
0,255,5,8432,1949,1115,1797,1834,1839,1863
0,255,6,8432,1928,1122,1812,1834,1840,1863
0,255,7,8464,1960,1111,1826,1834,1839,1862
0,255,8,8495,1953,1094,1817,1833,1840,1863
0,255,9,8495,1931,1105,1811,1834,1839,1864
0,255,10,8526,1956,1096,1827,1834,1839,1862
0,255,11,8542,1955,1103,1802,1834,1839,1863
0,255,12,8542,1946,1098,1801,1834,1839,1863
0,255,13,8573,1950,1108,1817,1835,1839,1863
0,255,14,8604,1931,1090,1820,1834,1841,1864
0,255,15,8604,1937,1100,1823,1834,1839,1863
0,255,16,8635,1935,1084,1807,1833,1840,1863
0,255,17,8666,1934,1125,1815,1833,1839,1863
0,255,18,8682,1948,1098,1815,1833,1839,1862
0,255,19,8698,1941,1120,1803,1835,1840,1863
0,255,20,8713,1942,1100,1832,1833,1838,1863
0,255,21,8744,1926,1107,1807,1834,1839,1863
0,255,22,8744,1918,1089,1816,1834,1840,1862
0,255,23,8776,1924,1092,1819,1833,1839,1863
0,255,24,8807,1959,1094,1810,1834,1839,1863
0,255,25,8822,1950,1112,1808,1834,1839,1864
0,255,26,8854,1951,1086,1795,1833,1839,1862
0,255,27,8854,1951,1117,1822,1835,1840,1863
0,255,28,8885,1944,1099,1811,1835,1841,1864
0,255,29,8885,1933,1115,1820,1834,1839,1862
0,255,30,8916,1940,1090,1817,1834,1840,1863
0,255,31,8916,1932,1091,1816,1834,1837,1862
0,255,32,8947,1945,1102,1820,1833,1839,1863
0,255,33,8978,1944,1106,1816,1835,1840,1861
0,255,34,8994,1950,1085,1808,1833,1839,1863
0,255,35,9010,1930,1109,1808,1835,1840,1863
0,255,36,9041,1923,1100,1784,1833,1839,1863
0,255,37,9072,1918,1108,1824,1834,1839,1862
0,255,38,9072,1937,1093,1815,1834,1841,1864
0,255,39,9103,1954,1098,1823,1834,1837,1861
0,255,40,9103,1945,1115,1826,1834,1839,1863
0,255,41,9119,1930,1098,1833,1835,1840,1862
0,255,42,9150,1964,1110,1816,1834,1840,1863
0,255,43,9181,1941,1083,1806,1834,1840,1862
0,255,44,9197,1953,1107,1800,1833,1839,1862
0,255,45,9197,1931,1115,1803,1834,1839,1863
0,255,46,9212,1938,1104,1825,1835,1841,1864
0,255,47,9244,1939,1090,1815,1833,1839,1862
0,255,48,9259,1942,1110,1824,1831,1839,1863
0,255,49,9275,1910,1102,1801,1834,1839,1863
0,255,50,9290,1948,1117,1814,1833,1840,1862
0,255,51,9322,1941,1111,1828,1834,1837,1862
0,255,52,9353,1946,1106,1792,1831,1838,1861
0,255,53,9353,1954,1106,1809,1835,1839,1863
0,255,54,9384,1960,1113,1800,1834,1840,1864
0,255,55,9400,1928,1112,1814,1834,1839,1863
0,255,56,9431,1934,1099,1807,1834,1840,1862
0,255,57,9431,1939,1105,1800,1833,1839,1863
0,255,58,9462,1931,1111,1807,1834,1840,1864
0,255,59,9478,1932,1090,1818,1835,1840,1862
0,255,60,9509,1938,1115,1807,1833,1839,1862
0,255,61,9509,1953,1088,1810,1835,1839,1862
0,255,62,9540,1926,1112,1804,1834,1840,1863
0,255,63,9571,1960,1097,1800,1833,1838,1862
0,255,64,9587,1933,1106,1802,1834,1840,1862
0,255,65,9602,1947,1098,1814,1833,1839,1863
0,255,66,9618,1940,1101,1814,1834,1839,1863
0,255,67,9634,1947,1091,1801,1834,1839,1862
0,255,68,9680,1939,1106,1812,1833,1838,1862
0,255,69,9680,1944,1092,1805,1834,1839,1863
0,255,70,9680,1950,1117,1807,1833,1840,1863
0,255,71,9712,1952,1101,1817,1834,1839,1863
0,255,72,9743,1936,1094,1812,1834,1839,1862
0,255,73,9758,1942,1102,1819,1834,1839,1864
0,255,74,9790,1931,1099,1805,1835,1841,1864
0,255,75,9790,1957,1093,1816,1835,1840,1862
0,255,76,9836,1935,1110,1811,1835,1840,1862
0,255,77,9836,1938,1090,1815,1834,1839,1864
0,255,78,9836,1947,1114,1811,1835,1841,1864
0,255,79,9868,1921,1088,1796,1831,1839,1863
0,255,80,9868,1942,1098,1820,1833,1839,1863
0,255,81,9899,1948,1110,1815,1833,1839,1864
0,255,82,9946,1943,1094,1809,1834,1838,1861
0,255,83,9946,1940,1104,1832,1834,1840,1863
0,255,84,9961,1935,1110,1813,1834,1839,1862
0,255,85,9992,1945,1098,1807,1834,1839,1863
0,255,86,9992,1951,1101,1803,1835,1840,1863
0,255,87,10024,1948,1094,1800,1833,1839,1862
0,255,88,10070,1937,1099,1815,1834,1839,1862
0,255,89,10070,1935,1106,1829,1834,1839,1864
0,255,90,10070,1941,1096,1812,1833,1839,1862
0,255,92,10164,1949,1102,1812,1832,1838,1862
0,255,93,10164,1946,1111,1819,1835,1839,1862
0,255,94,10180,1938,1110,1803,1833,1840,1863
0,255,95,10211,1949,1109,1807,1833,1839,1862
0,255,96,10211,1950,1113,1808,1835,1841,1863
0,255,97,10242,1938,1105,1815,1832,1838,1863
0,255,98,10242,1935,1093,1811,1834,1839,1862
0,255,99,10258,1932,1094,1807,1835,1840,1864
0,255,100,10289,1938,1092,1807,1834,1839,1862
0,255,101,10320,1939,1116,1802,1833,1840,1862
0,255,103,10351,1941,1111,1820,1835,1841,1864
0,255,104,10367,1944,1087,1809,1835,1839,1863
0,255,105,10367,1943,1102,1808,1835,1840,1863
0,255,106,10398,1943,1071,1819,1834,1839,1863
0,255,107,10429,1937,1103,1817,1835,1840,1862
0,255,108,10429,1941,1107,1799,1834,1839,1862
0,255,109,10460,1942,1110,1803,1833,1839,1862
0,255,110,10492,1964,1102,1816,1832,1840,1863
0,255,111,10492,1943,1113,1813,1833,1839,1862
0,255,112,10523,1952,1083,1821,1834,1839,1864
0,255,113,10523,1930,1109,1813,1833,1838,1863
0,255,114,10570,1942,1102,1808,1833,1840,1863
0,255,115,10570,1948,1111,1819,1834,1840,1863
0,255,116,10601,1943,1097,1808,1833,1839,1863
0,255,117,10632,1925,1111,1805,1833,1839,1862
0,255,118,10632,1948,1096,1807,1834,1840,1864
0,255,119,10663,1937,1090,1800,1834,1839,1862
0,255,120,10679,1942,1098,1808,1834,1839,1861
0,255,121,10694,1946,1106,1803,1833,1839,1863
0,255,122,10710,1954,1106,1805,1833,1839,1862
0,255,123,10726,1940,1096,1811,1834,1840,1862
0,255,124,10757,1939,1095,1816,1835,1841,1863
0,255,125,10757,1944,1117,1802,1833,1840,1862
0,255,126,10804,1926,1094,1802,1834,1841,1864
0,255,127,10835,1929,1098,1812,1834,1839,1862
0,255,128,10835,1935,1095,1807,1835,1840,1862
0,255,129,10866,1938,1106,1792,1833,1838,1863
0,255,130,10866,1938,1104,1785,1833,1840,1863
0,255,131,10882,1938,1104,1805,1834,1839,1862
0,255,132,10913,1938,1087,1801,1834,1839,1861
0,255,133,10944,1948,1103,1816,1834,1840,1862
0,255,134,10944,1950,1107,1822,1833,1841,1864
0,255,135,10960,1928,1105,1799,1833,1839,1861
0,255,136,10991,1944,1097,1817,1835,1839,1863
0,255,137,10991,1937,1102,1806,1834,1839,1863
0,255,138,11022,1955,1106,1822,1833,1839,1863
0,255,139,11053,1935,1089,1805,1835,1840,1862
0,255,140,11069,1940,1102,1795,1834,1839,1862
0,255,141,11069,1936,1083,1817,1833,1839,1862
0,255,142,11116,1948,1084,1804,1833,1839,1863
0,255,143,11116,1949,1112,1811,1833,1839,1862
0,255,144,11131,1943,1105,1806,1833,1839,1863
0,255,145,11162,1938,1094,1804,1834,1839,1863
0,255,146,11194,1925,1120,1805,1833,1839,1862
0,255,147,11194,1916,1102,1813,1835,1841,1863
0,255,148,11225,1936,1097,1809,1834,1839,1863
0,255,149,11256,1933,1101,1823,1833,1840,1862
0,255,150,11256,1941,1103,1808,1832,1841,1864
0,255,151,11287,1950,1099,1825,1835,1840,1864
0,255,152,11287,1927,1099,1825,1834,1839,1863
0,255,153,11318,1932,1099,1820,1833,1838,1863
0,255,154,11318,1941,1110,1810,1834,1839,1862
0,255,155,11381,1934,1088,1809,1835,1840,1863
0,255,156,11381,1948,1100,1819,1833,1838,1862
0,255,157,11381,1942,1119,1796,1833,1840,1862
0,255,158,11412,1940,1113,1802,1833,1840,1863
0,255,159,11443,1930,1098,1820,1835,1840,1864
0,255,160,11443,1947,1114,1827,1835,1839,1864
0,255,161,11474,1942,1095,1814,1835,1841,1864
0,255,162,11490,1940,1114,1795,1834,1839,1863
0,255,163,11521,1928,1099,1812,1835,1840,1862
0,255,164,11521,1959,1111,1817,1833,1838,1862
0,255,165,11552,1945,1094,1811,1834,1840,1864
0,255,166,11568,1928,1118,1807,1834,1840,1863
0,255,167,11599,1947,1116,1810,1834,1841,1863
0,255,168,11630,1944,1104,1800,1835,1839,1863
0,255,169,11630,1931,1085,1828,1833,1839,1863
0,255,170,11662,1926,1101,1824,1834,1839,1864
0,255,171,11662,1952,1086,1817,1835,1840,1863
0,255,172,11677,1943,1130,1797,1833,1839,1862
0,255,173,11693,1935,1106,1798,1834,1840,1863
0,255,174,11724,1944,1100,1805,1834,1840,1864
0,255,175,11740,1925,1096,1823,1833,1839,1862
0,255,176,11755,1934,1106,1806,1835,1839,1864
0,255,177,11786,1942,1098,1781,1833,1839,1864
0,255,178,11818,1942,1097,1811,1834,1838,1861
0,255,179,11818,1937,1083,1800,1835,1840,1863
0,255,180,11849,1935,1116,1807,1833,1839,1862
0,255,181,11880,1954,1106,1809,1833,1840,1863
0,255,182,11880,1945,1113,1797,1832,1840,1863
0,255,183,11911,1950,1123,1806,1833,1840,1863
0,255,184,11911,1951,1120,1813,1834,1839,1863
0,255,185,11942,1936,1108,1805,1834,1839,1864
0,255,186,11958,1938,1108,1831,1833,1839,1863
0,255,187,11989,1945,1104,1790,1835,1840,1863
0,255,188,12005,1935,1115,1816,1833,1838,1861
0,255,189,12020,1943,1106,1808,1834,1840,1863
0,255,190,12036,1946,1084,1794,1833,1839,1863
0,255,191,12067,1938,1108,1804,1834,1839,1862
0,255,193,12098,1936,1110,1820,1834,1838,1863
0,255,194,12114,1946,1085,1826,1833,1839,1863
0,255,195,12130,1929,1114,1807,1835,1840,1861
0,255,196,12161,1961,1088,1824,1833,1839,1862
0,255,197,12176,1926,1121,1823,1833,1840,1862
0,255,198,12192,1937,1084,1811,1832,1839,1863
0,255,199,12239,1940,1108,1818,1834,1839,1861
0,255,200,12239,1945,1098,1818,1835,1840,1863
0,255,201,12239,1940,1100,1819,1833,1839,1862
0,255,202,12270,1956,1101,1824,1832,1839,1862
0,255,203,12286,1930,1098,1796,1834,1840,1861
0,255,204,12301,1939,1104,1808,1834,1838,1861
0,255,206,12348,1963,1104,1819,1833,1840,1864
0,255,207,12348,1932,1103,1803,1834,1839,1861
0,255,208,12379,1941,1112,1813,1834,1839,1863
0,255,209,12410,1942,1093,1830,1833,1838,1862
0,255,210,12426,1935,1102,1793,1834,1839,1862
0,255,211,12457,1937,1109,1815,1834,1840,1861
0,255,212,12457,1939,1095,1816,1833,1839,1862
0,255,213,12488,1922,1113,1808,1833,1839,1862
0,255,214,12520,1942,1091,1808,1834,1840,1864
0,255,215,12520,1947,1105,1801,1834,1839,1862
0,255,216,12566,1938,1091,1819,1834,1839,1863
0,255,217,12566,1953,1131,1821,1834,1840,1863
0,255,218,12598,1931,1098,1788,1834,1841,1864
0,255,219,12598,1914,1108,1820,1834,1840,1862
0,255,220,12629,1948,1095,1808,1835,1839,1863
0,255,221,12629,1929,1122,1790,1834,1839,1862
0,255,222,12660,1926,1100,1793,1834,1839,1863
0,255,223,12691,1933,1120,1805,1833,1839,1862
0,255,224,12691,1952,1115,1801,1834,1839,1864
0,255,225,12722,1915,1119,1801,1833,1839,1864
0,255,226,12738,1942,1104,1808,1834,1839,1863
0,255,227,12754,1944,1105,1813,1834,1840,1862
0,255,228,12785,1932,1089,1805,1834,1839,1863
0,255,229,12816,1937,1116,1807,1833,1840,1862
0,255,230,12816,1929,1108,1819,1833,1839,1864
0,255,231,12847,1949,1091,1809,1834,1839,1862
0,255,232,12863,1939,1100,1801,1835,1839,1863
0,255,233,12878,1934,1101,1806,1833,1838,1864
0,255,234,12910,1957,1121,1795,1834,1839,1863
0,255,235,12925,1940,1108,1813,1834,1840,1863
0,255,236,12925,1922,1106,1808,1833,1840,1861
0,255,237,12956,1921,1097,1815,1834,1840,1862
0,255,238,12988,1927,1105,1800,1835,1841,1862
0,255,239,12988,1940,1085,1828,1833,1839,1862
0,255,240,13019,1924,1122,1814,1834,1840,1863
0,255,241,13019,1921,1088,1804,1834,1839,1863
0,255,242,13066,1933,1098,1811,1833,1839,1862
0,255,243,13066,1945,1099,1820,1834,1840,1861
0,255,244,13081,1922,1111,1806,1833,1839,1862
0,255,245,13112,1950,1103,1794,1835,1840,1863
0,255,246,13128,1941,1109,1835,1833,1840,1864
0,255,247,13159,1928,1088,1824,1834,1839,1862
0,255,248,13190,1952,1109,1802,1834,1839,1864
0,255,249,13190,1945,1094,1813,1833,1839,1863
0,255,250,13206,1951,1105,1811,1834,1839,1862
0,255,251,13237,1929,1093,1807,1834,1840,1864
0,255,252,13253,1934,1120,1787,1834,1839,1862
0,255,253,13268,1929,1096,1797,1834,1840,1863
0,255,254,13284,1938,1102,1810,1833,1840,1863
0,255,255,13315,1936,1075,1819,1835,1839,1863
0,255,0,13315,1922,1093,1806,1835,1840,1864
0,255,1,13362,1938,1097,1817,1833,1839,1864
0,255,2,13362,1939,1107,1810,1835,1839,1862
0,255,3,13393,1935,1101,1811,1833,1840,1863
0,255,4,13424,1930,1130,1815,1833,1838,1862
0,255,5,13424,1928,1103,1804,1833,1840,1863
0,255,6,13456,1931,1115,1804,1835,1841,1863
0,255,7,13456,1920,1102,1811,1834,1839,1863
0,255,8,13502,1953,1110,1801,1835,1840,1863
0,255,9,13502,1934,1108,1799,1834,1839,1863
0,255,10,13534,1948,1127,1811,1833,1839,1862
0,255,11,13565,1934,1107,1813,1833,1840,1861
0,255,12,13565,1962,1093,1806,1834,1840,1862
0,255,13,13565,1932,1093,1834,1834,1840,1863
0,255,14,13596,1952,1094,1817,1833,1839,1864
0,255,15,13612,1950,1114,1794,1834,1839,1861
0,255,16,13643,1932,1102,1826,1835,1839,1863
0,255,17,13674,1928,1102,1819,1835,1841,1864
0,255,18,13674,1927,1102,1820,1834,1839,1862
0,255,19,13705,1926,1102,1820,1835,1841,1864
0,255,20,13705,1936,1114,1817,1834,1839,1862
0,255,21,13736,1939,1102,1813,1834,1840,1863
0,255,22,13752,1942,1101,1794,1833,1841,1864
0,255,23,13783,1925,1105,1800,1833,1839,1862
0,255,24,13799,1944,1093,1798,1835,1839,1863
0,255,25,13814,1954,1108,1803,1833,1839,1863
0,255,26,13814,1944,1088,1799,1834,1839,1862
0,255,27,13846,1927,1101,1825,1834,1839,1861
0,255,28,13877,1945,1097,1814,1833,1837,1862
0,255,29,13877,1939,1108,1815,1834,1839,1862
0,255,30,13924,1956,1103,1811,1832,1839,1863
0,255,31,13955,1939,1127,1819,1834,1839,1861
0,255,32,13955,1939,1098,1815,1835,1840,1863
0,255,33,13986,1937,1105,1820,1832,1839,1863
0,255,34,14002,1921,1105,1813,1835,1839,1862
0,255,35,14002,1944,1118,1804,1834,1840,1862
0,255,36,14033,1948,1105,1814,1833,1839,1862
0,255,37,14064,1943,1107,1795,1833,1839,1863
0,255,38,14064,1926,1104,1796,1834,1839,1864
0,255,39,14095,1935,1122,1795,1834,1841,1864
0,255,40,14142,1940,1096,1791,1835,1840,1863
0,255,41,14158,1948,1106,1816,1833,1838,1862
0,255,42,14158,1961,1101,1792,1834,1839,1863
0,255,43,14158,1951,1117,1809,1835,1840,1862
0,255,44,14189,1927,1099,1817,1835,1840,1864
0,255,45,14204,1933,1113,1802,1833,1839,1863
0,255,46,14236,1941,1104,1819,1833,1839,1864
0,255,47,14236,1952,1085,1824,1833,1839,1862
0,255,48,14267,1949,1083,1809,1834,1840,1863
0,255,49,14282,1946,1113,1799,1835,1841,1863
0,255,50,14298,1951,1113,1801,1833,1838,1862
0,255,51,14329,1918,1108,1815,1834,1840,1863
0,255,52,14329,1939,1114,1790,1833,1839,1862
0,255,53,14360,1948,1104,1814,1833,1839,1862
0,255,54,14392,1939,1122,1810,1832,1839,1864
0,255,55,14392,1951,1102,1804,1833,1839,1862
0,255,56,14423,1940,1099,1812,1835,1840,1863
0,255,57,14423,1938,1103,1803,1834,1838,1861
0,255,58,14454,1930,1112,1804,1834,1839,1862
0,255,59,14485,1927,1092,1793,1834,1840,1863
0,255,60,14501,1954,1084,1793,1834,1839,1861
0,255,61,14516,1940,1103,1818,1835,1840,1863
0,255,62,14548,1954,1100,1818,1832,1839,1863
0,255,63,14563,1939,1105,1830,1833,1839,1862
0,255,64,14579,1939,1118,1809,1835,1840,1863
0,255,65,14610,1934,1120,1816,1832,1838,1862
0,255,66,14641,1949,1096,1795,1835,1839,1863
0,255,67,14641,1941,1105,1824,1834,1840,1863
0,255,68,14657,1918,1102,1812,1833,1838,1861
0,255,69,14688,1941,1093,1817,1833,1839,1862
0,255,70,14688,1932,1129,1813,1833,1839,1864
