SensorID,DataType,SeqNo,TimeStamp,AccX,AccY,AccZ,GyroX,GyroY,GyroZ
0,255,218,30919,1942,2145,902,1834,1839,1846
0,255,219,30919,1929,2165,892,1835,1838,1846
0,255,220,30919,1944,2151,883,1835,1839,1846
0,255,221,30919,1951,2134,897,1834,1838,1845
0,255,222,30919,1941,2144,904,1835,1839,1846
0,255,223,30919,1938,2145,909,1833,1839,1845
0,255,224,30919,1947,2139,891,1834,1838,1845
0,255,225,30951,1933,2145,891,1835,1841,1845
0,255,226,30951,1930,2127,900,1834,1839,1845
0,255,227,30982,1931,2145,894,1834,1840,1846
0,255,228,30997,1944,2141,882,1834,1839,1846
0,255,229,31013,1951,2155,884,1835,1839,1845
0,255,230,31029,1940,2173,886,1835,1839,1846
0,255,231,31060,1946,2152,916,1833,1839,1845
0,255,232,31091,1947,2133,906,1834,1840,1845
0,255,233,31091,1937,2148,886,1834,1839,1846
0,255,234,31122,1940,2153,888,1835,1841,1847
0,255,235,31122,1963,2138,893,1834,1839,1847
0,255,236,31153,1950,2147,892,1833,1838,1847
0,255,237,31169,1954,2139,906,1834,1840,1845
0,255,238,31200,1928,2132,893,1835,1840,1847
0,255,239,31200,1929,2140,896,1834,1838,1844
0,255,240,31231,1942,2149,899,1833,1839,1845
0,255,241,31231,1935,2139,910,1833,1840,1846
0,255,242,31263,1945,2158,899,1835,1840,1845
0,255,243,31294,1940,2142,887,1835,1840,1846
0,255,244,31309,1942,2128,889,1831,1838,1847
0,255,245,31341,1943,2166,900,1834,1839,1846
0,255,246,31341,1937,2145,901,1834,1840,1843
0,255,247,31372,1944,2140,912,1832,1839,1845
0,255,248,31387,1931,2154,878,1834,1840,1845
0,255,249,31419,1939,2130,904,1833,1839,1847
0,255,250,31434,1943,2163,895,1833,1838,1845
0,255,251,31465,1920,2145,905,1835,1839,1846
0,255,252,31465,1947,2142,874,1833,1839,1845
0,255,253,31497,1962,2170,905,1834,1838,1845
0,255,254,31497,1926,2118,889,1834,1839,1846
0,255,255,31528,1949,2145,891,1835,1840,1847
0,255,0,31528,1954,2141,906,1834,1839,1845
0,255,1,31559,1965,2148,892,1834,1839,1846
0,255,2,31559,1952,2151,883,1833,1839,1845
0,255,3,31590,1952,2142,899,1834,1840,1845
0,255,4,31621,1944,2145,884,1836,1841,1846
0,255,5,31621,1939,2155,906,1835,1839,1845
0,255,6,31653,1941,2149,897,1834,1840,1846
0,255,7,31684,1942,2148,888,1835,1839,1845
0,255,8,31699,1946,2161,892,1834,1839,1845
0,255,9,31715,1954,2136,914,1835,1840,1843
0,255,10,31731,1962,2130,891,1834,1839,1844
0,255,11,31762,1944,2145,906,1834,1840,1846
0,255,12,31762,1933,2132,906,1833,1838,1845
0,255,13,31793,1941,2158,874,1834,1839,1845
0,255,14,31809,1966,2131,887,1834,1840,1845
0,255,15,31824,1935,2147,912,1834,1839,1845
0,255,16,31855,1910,2139,890,1833,1839,1845
0,255,17,31871,1956,2163,894,1833,1839,1846
0,255,18,31887,1930,2133,909,1834,1840,1845
0,255,19,31918,1946,2098,902,1835,1840,1845
0,255,20,31933,1928,2170,907,1834,1840,1845
0,255,21,31965,1931,2139,884,1833,1839,1845
0,255,22,31965,1932,2147,887,1835,1841,1846
0,255,23,31996,1943,2126,894,1835,1841,1847
0,255,24,31996,1958,2139,905,1833,1839,1845
0,255,25,32027,1940,2166,904,1833,1839,1846
0,255,26,32058,1934,2151,900,1834,1838,1844
0,255,27,32058,1930,2141,901,1835,1840,1845
0,255,28,32089,1949,2132,887,1834,1840,1844
0,255,29,32105,1949,2132,913,1834,1838,1845
0,255,30,32121,1924,2141,893,1835,1840,1847
0,255,31,32152,1955,2156,894,1834,1840,1846
0,255,32,32152,1931,2156,891,1833,1839,1846
0,255,33,32183,1943,2139,876,1834,1839,1846
0,255,34,32199,1947,2141,902,1833,1839,1845
0,255,35,32214,1938,2148,900,1834,1841,1846
0,255,36,32230,1924,2157,902,1834,1836,1844
0,255,37,32261,1943,2165,873,1834,1838,1846
0,255,38,32292,1948,2152,896,1835,1839,1846
0,255,39,32292,1936,2140,901,1833,1837,1844
0,255,40,32323,1941,2152,890,1835,1840,1845
0,255,41,32323,1959,2132,907,1833,1839,1846
0,255,42,32370,1945,2142,894,1833,1838,1845
0,255,43,32370,1936,2152,882,1834,1837,1845
0,255,44,32401,1952,2130,906,1834,1839,1845
0,255,45,32433,1956,2143,890,1834,1841,1846
0,255,47,32464,1935,2151,894,1834,1837,1844
0,255,48,32464,1940,2147,899,1834,1839,1845
0,255,49,32495,1946,2139,890,1833,1839,1847
0,255,50,32511,1926,2134,906,1833,1839,1845
0,255,51,32542,1955,2141,887,1835,1840,1846
0,255,52,32542,1947,2151,895,1833,1839,1844
0,255,53,32573,1946,2121,896,1833,1838,1846
0,255,54,32589,1969,2139,899,1836,1840,1846
0,255,55,32620,1935,2144,885,1833,1840,1845
0,255,56,32620,1924,2143,895,1834,1839,1845
0,255,57,32667,1936,2155,883,1835,1839,1847
0,255,58,32682,1948,2155,897,1833,1840,1845
0,255,59,32698,1963,2147,903,1835,1840,1846
0,255,60,32698,1930,2135,929,1832,1838,1844
0,255,61,32729,1937,2159,899,1835,1838,1845
0,255,62,32760,1939,2151,899,1835,1840,1843
0,255,63,32776,1948,2138,894,1833,1838,1845
0,255,64,32791,1931,2143,917,1833,1840,1845
0,255,65,32807,1939,2150,896,1833,1840,1846
0,255,66,32838,1924,2138,893,1834,1839,1844
0,255,67,32838,1940,2137,875,1834,1840,1845
0,255,68,32869,1953,2151,892,1835,1840,1844
0,255,69,32869,1925,2148,915,1835,1839,1846
0,255,70,32901,1934,2164,884,1835,1840,1846
0,255,71,32932,1936,2132,895,1834,1839,1845
0,255,72,32947,1955,2135,913,1833,1839,1845
0,255,73,32963,1940,2153,911,1834,1839,1846
0,255,74,33010,1925,2146,895,1834,1840,1845
0,255,75,33010,1952,2144,870,1835,1840,1846
0,255,76,33025,1938,2157,892,1832,1839,1844
0,255,77,33057,1946,2142,897,1834,1839,1846
0,255,78,33057,1940,2143,892,1835,1840,1846
0,255,79,33088,1924,2121,890,1834,1839,1845
0,255,80,33103,1947,2150,904,1833,1839,1845
0,255,81,33119,1938,2152,896,1833,1839,1845
0,255,82,33150,1957,2132,897,1834,1840,1845
0,255,83,33150,1948,2136,894,1835,1840,1845
0,255,84,33197,1954,2147,891,1834,1840,1845
0,255,85,33197,1950,2170,892,1835,1839,1845
0,255,86,33228,1957,2135,895,1835,1841,1847
0,255,87,33244,1948,2127,912,1833,1840,1844
0,255,88,33259,1951,2148,893,1833,1840,1845
0,255,89,33275,1959,2136,881,1833,1839,1846
0,255,90,33306,1942,2144,889,1834,1840,1846
0,255,91,33322,1951,2134,895,1835,1840,1845
0,255,92,33337,1951,2160,899,1834,1839,1845
0,255,93,33353,1926,2162,894,1835,1840,1845
0,255,94,33384,1935,2135,878,1833,1839,1846
0,255,95,33384,1944,2144,910,1834,1838,1844
0,255,96,33415,1941,2131,902,1834,1840,1845
0,255,97,33431,1942,2123,919,1833,1840,1846
0,255,98,33462,1952,2132,893,1834,1839,1845
0,255,99,33462,1971,2136,908,1835,1840,1845
0,255,100,33493,1927,2134,901,1833,1839,1845
0,255,101,33509,1932,2139,895,1834,1840,1844
0,255,102,33540,1929,2114,888,1833,1842,1846
0,255,103,33556,1934,2146,903,1833,1839,1845
0,255,104,33556,1954,2122,881,1832,1839,1846
0,255,105,33587,1939,2139,892,1833,1839,1846
0,255,106,33618,1938,2140,911,1834,1839,1845
0,255,107,33634,1960,2140,897,1835,1840,1845
0,255,108,33649,1947,2153,908,1834,1839,1845
0,255,109,33665,1962,2148,907,1834,1840,1845
0,255,110,33696,1945,2153,884,1833,1841,1847
0,255,111,33696,1919,2160,895,1833,1840,1845
0,255,112,33727,1944,2141,890,1834,1840,1845
0,255,113,33727,1961,2132,908,1833,1839,1846
0,255,114,33759,1960,2130,886,1834,1839,1845
0,255,115,33790,1958,2152,915,1835,1841,1845
0,255,116,33805,1946,2153,893,1834,1839,1844
0,255,117,33837,1953,2158,895,1835,1840,1845
0,255,118,33837,1937,2121,894,1834,1840,1845
0,255,119,33883,1941,2149,891,1835,1840,1846
0,255,120,33883,1955,2130,897,1834,1840,1843
0,255,122,33915,1946,2159,887,1834,1840,1845
0,255,123,33961,1941,2142,909,1835,1839,1846
0,255,124,33961,1912,2177,896,1834,1837,1845
0,255,125,33993,1926,2145,890,1834,1839,1846
0,255,126,33993,1938,2150,887,1833,1840,1847
0,255,127,34024,1948,2145,895,1835,1840,1846
0,255,128,34039,1945,2148,883,1835,1839,1845
0,255,129,34055,1936,2115,898,1833,1840,1846
0,255,130,34071,1948,2144,890,1833,1839,1845
0,255,131,34117,1940,2149,903,1834,1840,1845
0,255,133,34117,1954,2130,897,1835,1839,1846
0,255,134,34149,1925,2129,916,1832,1841,1847
0,255,135,34195,1940,2156,894,1834,1842,1847
0,255,136,34195,1939,2156,919,1833,1840,1844
0,255,137,34227,1942,2149,888,1834,1840,1847
0,255,140,34273,1934,2143,910,1834,1839,1845
0,255,141,34305,1955,2144,901,1834,1839,1845
0,255,142,34305,1937,2139,912,1833,1840,1846
0,255,143,34336,1944,2146,887,1834,1840,1845
0,255,144,34367,1948,2147,905,1834,1840,1846
0,255,145,34367,1919,2127,879,1834,1838,1847
0,255,146,34383,1931,2154,897,1834,1839,1845
0,255,147,34414,1948,2144,890,1835,1840,1845
0,255,148,34445,1955,2124,902,1833,1838,1844
0,255,149,34461,1960,2150,898,1834,1838,1846
0,255,150,34476,1930,2145,908,1833,1840,1846
0,255,151,34492,1952,2146,894,1834,1838,1845
0,255,153,34523,1944,2144,888,1833,1838,1846
0,255,154,34554,1921,2173,923,1834,1841,1847
0,255,155,34554,1945,2159,865,1834,1840,1846
0,255,156,34601,1931,2144,901,1835,1840,1844
0,255,157,34601,1936,2144,918,1834,1839,1845
0,255,158,34632,1957,2144,887,1833,1839,1846
0,255,159,34632,1941,2146,887,1833,1839,1844
0,255,160,34663,1951,2127,898,1834,1839,1845
0,255,161,34695,1946,2144,873,1834,1839,1846
0,255,162,34695,1934,2156,901,1833,1839,1845
0,255,163,34726,1938,2143,875,1835,1840,1845
0,255,164,34726,1946,2159,894,1833,1840,1845
0,255,165,34757,1948,2145,886,1834,1838,1846
0,255,166,34788,1944,2157,903,1832,1839,1846
0,255,167,34804,1967,2142,883,1833,1839,1845
0,255,168,34835,1947,2143,889,1834,1839,1846
0,255,169,34835,1948,2150,879,1833,1839,1846
0,255,170,34882,1937,2153,900,1834,1840,1845
0,255,171,34882,1940,2145,898,1835,1840,1845
0,255,172,34897,1939,2138,898,1835,1841,1847
0,255,173,34913,1932,2147,897,1833,1840,1845
0,255,174,34944,1943,2132,898,1834,1841,1847
0,255,175,34944,1943,2155,887,1833,1839,1845
0,255,176,34975,1951,2131,880,1835,1839,1846
0,255,177,34975,1948,2152,889,1832,1839,1845
0,255,178,35007,1961,2120,891,1834,1839,1845
0,255,179,35038,1918,2140,902,1835,1840,1846
0,255,180,35038,1947,2139,874,1834,1839,1844
0,255,181,35069,1947,2163,902,1834,1838,1847
0,255,182,35100,1954,2134,888,1834,1840,1846
0,255,183,35116,1936,2151,891,1833,1837,1844
0,255,184,35147,1930,2130,888,1834,1839,1845
0,255,185,35147,1928,2163,888,1833,1838,1845
0,255,186,35178,1933,2156,898,1834,1840,1845
0,255,187,35178,1942,2119,904,1835,1840,1846
0,255,188,35209,1935,2144,905,1833,1838,1844
0,255,189,35241,1930,2167,909,1834,1840,1845
0,255,190,35256,1932,2144,897,1833,1839,1846
0,255,191,35272,1941,2149,897,1833,1838,1844
0,255,193,35319,1946,2134,891,1834,1839,1846
0,255,194,35319,1952,2150,895,1834,1839,1845
0,255,195,35350,1945,2142,904,1834,1839,1845
0,255,196,35381,1951,2134,877,1834,1838,1844
0,255,197,35381,1945,2136,904,1834,1840,1845
0,255,198,35397,1931,2134,885,1834,1840,1846
0,255,199,35428,1940,2161,918,1835,1839,1844
0,255,200,35459,1912,2144,895,1834,1839,1846
0,255,201,35475,1940,2146,888,1833,1839,1846
0,255,203,35506,1939,2142,903,1835,1840,1845
0,255,204,35537,1946,2126,893,1833,1838,1845
0,255,205,35537,1935,2162,895,1833,1839,1845
0,255,206,35568,1933,2147,893,1833,1840,1847
0,255,207,35568,1936,2150,900,1833,1839,1845
0,255,208,35599,1930,2155,894,1834,1839,1846
0,255,209,35615,1938,2169,896,1833,1839,1846
0,255,210,35646,1937,2135,887,1834,1838,1844
0,255,211,35677,1939,2138,900,1835,1840,1845
0,255,212,35677,1967,2155,910,1833,1838,1845
0,255,213,35709,1946,2148,892,1835,1839,1845
0,255,214,35724,1953,2110,903,1834,1839,1846
0,255,215,35755,1947,2134,906,1835,1840,1846
0,255,216,35755,1923,2135,894,1835,1839,1846
0,255,217,35787,1947,2143,880,1834,1839,1846
0,255,218,35802,1948,2150,897,1832,1839,1845
0,255,219,35802,1938,2151,887,1835,1840,1845
0,255,220,35833,1937,2145,899,1833,1839,1845
0,255,221,35865,1950,2147,872,1834,1840,1845
0,255,222,35865,1940,2139,899,1832,1838,1846
0,255,223,35896,1932,2158,869,1835,1840,1846
0,255,224,35896,1934,2149,909,1834,1838,1845
0,255,225,35927,1960,2137,903,1833,1839,1845
0,255,226,35958,1943,2159,898,1834,1837,1844
0,255,227,35958,1944,2145,884,1834,1840,1845
0,255,228,36005,1955,2120,897,1833,1838,1844
0,255,229,36005,1945,2134,889,1834,1840,1845
0,255,230,36036,1942,2143,913,1834,1842,1846
0,255,231,36052,1928,2156,893,1834,1839,1843
0,255,232,36083,1947,2150,897,1835,1839,1845
0,255,233,36083,1958,2142,885,1834,1839,1846
0,255,234,36114,1944,2141,889,1834,1839,1845
0,255,235,36114,1944,2147,877,1835,1839,1845
0,255,237,36177,1947,2143,905,1833,1839,1845
0,255,238,36192,1933,2154,896,1834,1840,1846
0,255,239,36208,1947,2135,901,1835,1838,1845
0,255,240,36239,1934,2133,910,1834,1839,1845
0,255,241,36270,1919,2152,893,1834,1840,1846
0,255,242,36270,1955,2149,912,1834,1839,1846
0,255,243,36301,1935,2145,904,1834,1840,1845
0,255,244,36301,1960,2144,896,1834,1839,1845
0,255,245,36333,1927,2138,894,1834,1840,1846
0,255,246,36348,1954,2127,916,1832,1842,1846
0,255,247,36379,1936,2154,905,1834,1839,1845
0,255,248,36379,1944,2137,920,1835,1839,1846
0,255,249,36411,1952,2159,893,1833,1837,1846
0,255,251,36442,1924,2139,877,1834,1840,1844
0,255,252,36457,1942,2137,894,1834,1839,1844
0,255,253,36489,1940,2151,878,1833,1840,1845
0,255,254,36520,1919,2136,890,1832,1841,1846
0,255,255,36520,1928,2141,889,1834,1840,1845
0,255,0,36535,1928,2140,914,1834,1840,1846
0,255,1,36582,1940,2121,901,1832,1838,1846
0,255,2,36582,1929,2132,899,1834,1839,1845
0,255,3,36582,1952,2144,894,1834,1840,1845
0,255,4,36629,1957,2135,890,1833,1837,1845
0,255,5,36629,1958,2148,894,1833,1839,1845
0,255,6,36660,1930,2148,905,1835,1840,1847
0,255,7,36676,1928,2146,888,1834,1839,1846
0,255,8,36707,1943,2154,895,1835,1839,1846
0,255,9,36707,1942,2141,913,1833,1838,1846
0,255,10,36738,1941,2165,896,1833,1839,1847
0,255,11,36769,1960,2145,900,1834,1839,1845
0,255,12,36769,1942,2150,884,1833,1838,1844
0,255,13,36816,1919,2143,891,1834,1839,1846
0,255,14,36816,1938,2120,914,1834,1839,1846
0,255,15,36816,1942,2147,902,1834,1839,1844
0,255,16,36847,1948,2141,894,1835,1839,1846
0,255,17,36879,1940,2153,894,1834,1839,1846
0,255,18,36879,1944,2154,897,1834,1839,1845
0,255,19,36910,1951,2135,890,1834,1840,1846
0,255,20,36925,1934,2135,899,1834,1839,1845
0,255,21,36957,1931,2135,918,1834,1838,1845
0,255,23,36988,1944,2146,908,1834,1840,1845
0,255,24,37003,1949,2144,880,1835,1840,1845
0,255,25,37035,1939,2157,898,1833,1838,1846
0,255,26,37050,1914,2157,882,1835,1839,1845
0,255,27,37081,1945,2147,896,1835,1841,1845
0,255,28,37081,1945,2153,892,1833,1837,1844
0,255,29,37113,1943,2138,900,1834,1839,1845
0,255,30,37144,1948,2164,889,1833,1840,1846
0,255,31,37144,1944,2149,898,1833,1839,1845
0,255,32,37175,1930,2143,891,1834,1840,1845
0,255,33,37175,1945,2156,902,1833,1839,1846
0,255,34,37206,1935,2130,905,1834,1839,1845
0,255,35,37206,1945,2146,897,1835,1840,1846
0,255,36,37237,1932,2129,907,1833,1837,1844
0,255,37,37253,1938,2149,887,1834,1840,1845
0,255,38,37284,1946,2160,902,1835,1842,1845
0,255,39,37300,1954,2141,901,1834,1839,1845
0,255,40,37331,1952,2154,878,1835,1838,1846
0,255,41,37331,1937,2145,898,1833,1839,1847
0,255,42,37362,1939,2155,883,1834,1839,1845
0,255,43,37393,1944,2133,901,1835,1840,1846
0,255,44,37409,1940,2145,878,1833,1838,1845
0,255,45,37409,1937,2144,915,1834,1840,1845
0,255,46,37440,1946,2156,905,1835,1840,1846
0,255,47,37440,1945,2146,895,1834,1840,1845
0,255,48,37471,1940,2150,901,1834,1838,1846
0,255,49,37503,1935,2133,903,1834,1839,1847
0,255,50,37503,1940,2161,893,1834,1838,1845
0,255,51,37534,1957,2137,912,1834,1841,1846
0,255,52,37565,1934,2144,916,1833,1839,1845
0,255,53,37565,1926,2137,917,1834,1841,1845
0,255,54,37612,1949,2149,902,1835,1841,1845
0,255,56,37627,1944,2151,887,1834,1839,1846
0,255,57,37659,1943,2134,895,1834,1840,1847
0,255,58,37690,1932,2149,891,1835,1839,1845
0,255,59,37690,1938,2165,894,1835,1841,1843
0,255,60,37721,1938,2126,905,1835,1840,1847
0,255,61,37721,1941,2147,912,1834,1839,1845
0,255,62,37752,1924,2151,886,1834,1839,1847
0,255,63,37752,1925,2141,888,1834,1839,1844
0,255,64,37783,1941,2154,896,1835,1841,1846
0,255,65,37799,1960,2126,906,1833,1838,1847
0,255,66,37830,1953,2158,898,1834,1839,1846
0,255,67,37830,1941,2134,911,1835,1841,1844
0,255,68,37861,1930,2148,888,1834,1839,1845
0,255,69,37893,1932,2155,908,1834,1839,1845
0,255,70,37908,1946,2150,901,1834,1840,1846
0,255,71,37939,1935,2140,903,1834,1838,1844
0,255,72,37939,1956,2149,889,1834,1840,1845
0,255,73,37971,1940,2107,884,1834,1839,1845
0,255,74,38002,1954,2137,911,1835,1839,1845
0,255,75,38002,1932,2139,896,1834,1840,1844
0,255,76,38017,1941,2152,891,1834,1839,1844
0,255,77,38049,1933,2127,889,1834,1839,1846
0,255,78,38064,1954,2141,907,1835,1841,1846
0,255,79,38080,1942,2152,905,1833,1839,1845
0,255,80,38111,1941,2176,899,1834,1839,1846
0,255,82,38142,1943,2145,921,1834,1839,1845
0,255,83,38173,1955,2169,878,1835,1839,1846
0,255,84,38189,1937,2136,902,1834,1839,1845
0,255,85,38189,1938,2150,891,1833,1839,1845
0,255,86,38220,1948,2148,890,1832,1839,1846
0,255,87,38251,1940,2147,890,1834,1840,1845
0,255,88,38251,1958,2149,879,1834,1840,1845
0,255,89,38283,1947,2153,899,1833,1839,1845
0,255,90,38298,1939,2149,885,1834,1840,1845
0,255,91,38329,1945,2153,902,1834,1841,1847
0,255,92,38329,1929,2140,901,1833,1840,1845
0,255,93,38361,1947,2142,891,1835,1840,1845
0,255,94,38423,1944,2149,901,1833,1839,1846
0,255,95,38423,1945,2148,894,1834,1840,1846
0,255,96,38423,1921,2130,891,1835,1841,1845
0,255,97,38423,1924,2152,890,1831,1839,1844
0,255,98,38454,1951,2152,894,1833,1839,1844
0,255,99,38454,1948,2117,883,1834,1840,1846
0,255,100,38501,1930,2140,903,1833,1839,1845
0,255,102,38532,1938,2139,886,1833,1839,1847
0,255,103,38548,1956,2137,881,1833,1839,1844
0,255,104,38579,1959,2143,888,1835,1840,1846
0,255,105,38579,1932,2145,884,1834,1839,1845
0,255,106,38610,1950,2163,878,1835,1840,1846
0,255,107,38641,1931,2147,889,1834,1840,1845
0,255,108,38641,1936,2147,900,1834,1839,1845
0,255,109,38673,1922,2142,900,1835,1839,1845
0,255,110,38673,1936,2131,891,1833,1839,1846
0,255,111,38704,1940,2137,910,1834,1839,1845
0,255,112,38735,1959,2124,908,1834,1840,1845
0,255,113,38751,1927,2151,889,1833,1839,1844
0,255,114,38751,1951,2135,883,1836,1840,1845
0,255,115,38782,1933,2151,897,1836,1841,1846
0,255,116,38813,1946,2132,902,1834,1840,1845
0,255,117,38813,1935,2149,911,1834,1839,1845
0,255,118,38844,1958,2160,899,1833,1839,1846
0,255,119,38875,1950,2150,897,1834,1839,1845
0,255,120,38875,1955,2135,900,1835,1840,1845
0,255,121,38907,1930,2139,910,1833,1840,1845
0,255,122,38922,1936,2139,886,1836,1839,1845
0,255,123,38953,1938,2150,912,1834,1840,1847
0,255,124,38953,1927,2131,895,1834,1839,1845
0,255,125,38985,1907,2129,895,1834,1840,1845
0,255,126,39016,1938,2131,886,1832,1839,1846
0,255,128,39047,1944,2146,899,1835,1841,1846
0,255,129,39047,1932,2134,882,1834,1839,1844
0,255,130,39078,1940,2149,913,1834,1840,1846
0,255,131,39078,1946,2138,903,1834,1841,1846
0,255,132,39109,1931,2144,888,1834,1838,1845
0,255,133,39141,1944,2144,904,1834,1839,1843
0,255,134,39156,1937,2138,880,1834,1839,1846
0,255,135,39187,1948,2129,907,1833,1840,1845
0,255,136,39187,1929,2148,888,1834,1838,1845
0,255,137,39219,1939,2112,901,1833,1840,1846
0,255,138,39250,1967,2148,882,1834,1839,1845
0,255,139,39250,1922,2149,897,1835,1840,1846
0,255,140,39281,1926,2154,880,1835,1841,1847
0,255,141,39297,1961,2162,897,1833,1840,1845
0,255,142,39312,1966,2150,893,1835,1839,1846
0,255,143,39328,1940,2154,912,1833,1839,1845
0,255,144,39359,1928,2128,905,1834,1840,1846
0,255,145,39390,1947,2124,883,1832,1839,1844
0,255,146,39406,1942,2146,890,1835,1839,1846
0,255,147,39406,1963,2139,904,1835,1841,1846
0,255,148,39453,1922,2152,899,1833,1838,1845
0,255,149,39453,1943,2121,893,1833,1840,1846
0,255,150,39484,1946,2150,899,1832,1838,1846
0,255,151,39484,1926,2143,904,1833,1840,1845
0,255,152,39515,1934,2138,901,1834,1841,1846
0,255,153,39515,1924,2143,900,1834,1839,1844
0,255,154,39546,1942,2147,909,1835,1840,1846
0,255,155,39577,1949,2139,872,1834,1841,1846
0,255,156,39577,1955,2119,899,1833,1839,1845
0,255,157,39609,1960,2162,891,1833,1839,1846
0,255,158,39624,1941,2146,899,1833,1838,1846
0,255,159,39655,1952,2138,893,1833,1840,1845
0,255,160,39655,1942,2130,895,1835,1841,1845
0,255,161,39687,1937,2138,884,1834,1839,1845
0,255,162,39687,1949,2145,905,1834,1838,1845
0,255,163,39718,1940,2150,863,1833,1840,1847
0,255,164,39749,1944,2163,892,1833,1839,1845
0,255,165,39749,1949,2152,899,1834,1839,1846
0,255,166,39780,1941,2136,912,1834,1839,1847
0,255,167,39796,1946,2148,884,1834,1840,1845
0,255,168,39811,1927,2140,903,1835,1840,1845
0,255,169,39827,1935,2144,892,1835,1838,1844
0,255,170,39858,1929,2141,911,1835,1838,1846
0,255,171,39889,1952,2135,869,1833,1840,1846
0,255,172,39889,1953,2141,889,1834,1840,1845
0,255,173,39921,1946,2146,893,1834,1840,1845
0,255,174,39952,1947,2119,904,1833,1841,1847
0,255,175,39952,1956,2165,891,1834,1840,1845
0,255,176,39983,1921,2151,919,1834,1841,1846
0,255,177,40014,1929,2159,894,1834,1839,1845
0,255,178,40030,1952,2154,903,1834,1839,1846
0,255,179,40030,1929,2140,894,1835,1840,1846
0,255,180,40061,1938,2151,891,1834,1839,1845
0,255,181,40077,1945,2149,899,1834,1839,1843
0,255,182,40108,1909,2143,889,1835,1838,1847
0,255,183,40139,1936,2126,895,1834,1838,1845
0,255,184,40139,1937,2126,891,1835,1842,1846
0,255,185,40170,1942,2154,893,1834,1839,1845
0,255,186,40170,1954,2133,901,1833,1839,1845
0,255,187,40201,1942,2131,900,1835,1840,1845
0,255,188,40217,1938,2158,880,1834,1839,1845
0,255,189,40233,1939,2143,903,1834,1841,1846
0,255,190,40248,1926,2154,888,1834,1839,1846
0,255,191,40279,1948,2151,898,1834,1840,1847
0,255,193,40311,1939,2153,891,1834,1838,1844
0,255,194,40326,1934,2139,903,1833,1839,1845
0,255,195,40342,1930,2135,896,1834,1842,1846
0,255,196,40389,1933,2140,911,1834,1840,1844
0,255,197,40389,1950,2143,896,1835,1839,1844
0,255,198,40420,1945,2148,891,1833,1840,1847
0,255,199,40420,1961,2135,891,1834,1839,1845
0,255,200,40451,1942,2138,885,1835,1841,1846
0,255,201,40451,1941,2130,893,1833,1841,1845
0,255,202,40482,1950,2162,873,1834,1840,1846
0,255,203,40498,1930,2155,894,1833,1839,1846
0,255,204,40513,1946,2139,911,1834,1840,1845
0,255,205,40560,1956,2143,907,1834,1839,1846
0,255,206,40560,1922,2147,885,1834,1840,1846
0,255,207,40591,1948,2152,901,1834,1840,1847
0,255,208,40591,1940,2144,869,1834,1840,1845
0,255,209,40607,1931,2128,892,1834,1839,1845
0,255,210,40638,1950,2119,892,1834,1840,1846
0,255,211,40669,1935,2139,902,1833,1839,1846
0,255,212,40685,1939,2141,893,1834,1839,1845
0,255,213,40685,1939,2147,907,1834,1839,1846
0,255,214,40716,1944,2156,878,1832,1837,1845
0,255,215,40747,1930,2134,902,1834,1840,1845
0,255,216,40747,1944,2111,886,1834,1839,1845
0,255,217,40779,1926,2140,921,1833,1838,1844
0,255,218,40794,1940,2147,896,1834,1839,1845
0,255,219,40810,1974,2149,900,1833,1841,1846
0,255,220,40841,1956,2155,890,1834,1841,1843
0,255,221,40841,1948,2151,897,1834,1839,1846
0,255,222,40872,1944,2111,881,1834,1840,1846
0,255,223,40888,1946,2152,903,1833,1839,1845
0,255,224,40919,1951,2137,911,1835,1841,1845
0,255,225,40919,1938,2171,893,1834,1839,1844
0,255,226,40950,1949,2163,884,1833,1840,1845
0,255,227,40981,1945,2134,892,1833,1840,1847
0,255,228,40981,1945,2143,892,1834,1839,1844
