SensorID,DataType,SeqNo,TimeStamp,AccX,AccY,AccZ,GyroX,GyroY,GyroZ
0,255,198,6274,1906,3140,1919,1832,1839,1845
0,255,199,6274,1918,3141,1895,1834,1839,1845
0,255,200,6274,1913,3149,1919,1835,1842,1845
0,255,201,6274,1924,3149,1908,1834,1839,1844
0,255,202,6274,1934,3111,1924,1834,1840,1845
0,255,203,6274,1920,3136,1921,1834,1841,1846
0,255,204,6274,1915,3131,1909,1834,1840,1844
0,255,205,6305,1913,3145,1919,1834,1842,1845
0,255,206,6305,1928,3135,1890,1834,1839,1845
0,255,207,6336,1930,3138,1907,1834,1839,1845
0,255,208,6367,1926,3135,1914,1834,1840,1845
0,255,209,6367,1908,3148,1894,1834,1839,1845
0,255,210,6399,1919,3118,1905,1834,1840,1846
0,255,211,6430,1901,3133,1918,1833,1839,1846
0,255,212,6430,1914,3147,1896,1833,1840,1845
0,255,213,6461,1914,3107,1906,1835,1841,1845
0,255,214,6492,1915,3130,1912,1834,1840,1846
0,255,215,6492,1917,3131,1921,1833,1839,1845
0,255,216,6523,1910,3137,1912,1835,1840,1846
0,255,217,6523,1923,3142,1894,1834,1839,1845
0,255,218,6555,1927,3140,1895,1834,1840,1846
0,255,219,6555,1908,3133,1911,1833,1840,1847
0,255,220,6601,1907,3149,1915,1834,1840,1845
0,255,221,6633,1918,3117,1923,1834,1839,1846
0,255,222,6633,1930,3129,1902,1834,1839,1846
0,255,223,6664,1915,3139,1903,1834,1840,1845
0,255,224,6664,1938,3138,1901,1835,1841,1845
0,255,225,6695,1928,3145,1913,1834,1840,1846
0,255,226,6695,1913,3156,1904,1834,1839,1845
0,255,227,6726,1923,3122,1908,1833,1840,1846
0,255,228,6742,1900,3134,1920,1834,1839,1844
0,255,229,6773,1904,3156,1903,1835,1840,1846
0,255,230,6773,1939,3137,1910,1833,1840,1845
0,255,231,6804,1906,3143,1915,1833,1840,1845
0,255,232,6835,1907,3148,1902,1835,1843,1845
0,255,233,6835,1925,3120,1907,1834,1838,1844
0,255,234,6867,1927,3133,1918,1834,1839,1845
0,255,235,6882,1908,3126,1900,1834,1842,1847
0,255,236,6898,1915,3136,1896,1835,1840,1845
0,255,237,6945,1906,3132,1923,1834,1840,1845
0,255,238,6945,1916,3145,1916,1834,1840,1846
0,255,239,6976,1927,3122,1905,1834,1841,1844
0,255,240,7007,1908,3131,1908,1834,1841,1846
0,255,241,7007,1908,3134,1901,1834,1840,1845
0,255,242,7007,1927,3132,1911,1833,1841,1845
0,255,243,7054,1898,3147,1916,1833,1840,1846
0,255,244,7054,1920,3138,1918,1833,1839,1846
0,255,245,7085,1933,3131,1917,1835,1840,1845
0,255,246,7101,1909,3139,1920,1834,1839,1846
0,255,247,7132,1913,3148,1906,1834,1840,1844
0,255,248,7147,1899,3140,1905,1835,1841,1845
0,255,249,7179,1925,3120,1898,1833,1840,1845
0,255,250,7179,1922,3148,1904,1834,1840,1845
0,255,251,7210,1916,3142,1907,1833,1840,1846
0,255,252,7210,1907,3151,1923,1834,1839,1846
0,255,253,7225,1918,3127,1906,1836,1840,1846
0,255,254,7257,1909,3133,1914,1834,1839,1846
0,255,255,7272,1912,3132,1912,1834,1841,1845
0,255,0,7303,1907,3153,1912,1835,1842,1844
0,255,1,7303,1923,3138,1902,1834,1839,1844
0,255,2,7335,1908,3141,1895,1835,1840,1845
0,255,3,7366,1914,3150,1892,1833,1838,1846
0,255,4,7381,1925,3144,1908,1836,1840,1845
0,255,5,7397,1921,3153,1934,1834,1840,1845
0,255,6,7413,1912,3153,1911,1834,1839,1846
0,255,7,7428,1927,3135,1914,1834,1841,1846
0,255,8,7459,1900,3139,1905,1835,1840,1845
0,255,9,7459,1922,3132,1885,1834,1839,1844
0,255,10,7506,1932,3139,1901,1834,1840,1845
0,255,11,7506,1938,3133,1893,1834,1841,1846
0,255,12,7537,1915,3145,1895,1833,1840,1845
0,255,13,7553,1910,3162,1898,1835,1840,1846
0,255,14,7584,1920,3139,1909,1835,1840,1846
0,255,15,7584,1911,3123,1907,1835,1840,1845
0,255,16,7615,1918,3158,1913,1834,1841,1846
0,255,17,7615,1924,3134,1926,1833,1839,1844
0,255,18,7647,1940,3138,1921,1833,1841,1845
0,255,19,7662,1905,3138,1914,1833,1841,1847
0,255,20,7693,1910,3140,1911,1834,1840,1845
0,255,21,7693,1926,3117,1909,1834,1840,1846
0,255,22,7725,1904,3139,1906,1833,1840,1846
0,255,23,7756,1931,3150,1896,1835,1839,1845
0,255,24,7771,1936,3109,1896,1834,1841,1845
0,255,25,7803,1902,3137,1909,1834,1842,1846
0,255,26,7803,1900,3135,1913,1833,1841,1845
0,255,27,7834,1900,3152,1929,1833,1841,1846
0,255,28,7834,1930,3115,1902,1834,1840,1845
0,255,29,7865,1914,3135,1918,1835,1841,1845
0,255,30,7881,1912,3138,1894,1833,1839,1847
0,255,31,7912,1906,3151,1890,1834,1841,1845
0,255,32,7912,1912,3121,1920,1833,1840,1844
0,255,33,7927,1900,3126,1914,1833,1840,1845
0,255,34,7974,1912,3154,1904,1833,1840,1845
0,255,35,7974,1919,3154,1907,1833,1840,1846
0,255,36,8005,1913,3135,1898,1834,1841,1845
0,255,37,8021,1898,3147,1907,1835,1840,1846
0,255,38,8037,1914,3123,1905,1834,1842,1846
0,255,39,8068,1935,3132,1925,1833,1839,1844
0,255,40,8068,1910,3140,1931,1835,1841,1845
0,255,41,8099,1916,3154,1908,1835,1839,1843
0,255,42,8130,1930,3123,1907,1834,1840,1845
0,255,43,8130,1900,3147,1912,1834,1841,1846
0,255,44,8161,1910,3148,1911,1834,1842,1846
0,255,45,8177,1917,3127,1907,1835,1840,1846
0,255,46,8208,1925,3145,1912,1833,1840,1845
0,255,47,8208,1900,3136,1905,1835,1840,1845
0,255,48,8239,1919,3143,1922,1834,1842,1845
0,255,49,8239,1917,3165,1908,1834,1840,1844
0,255,50,8271,1911,3142,1905,1834,1840,1845
0,255,51,8302,1908,3162,1921,1834,1840,1846
0,255,52,8302,1916,3136,1902,1833,1839,1843
0,255,53,8333,1915,3119,1918,1835,1842,1844
0,255,54,8364,1916,3152,1890,1834,1839,1846
0,255,55,8364,1920,3156,1909,1835,1840,1845
0,255,56,8395,1900,3095,1916,1834,1840,1846
0,255,57,8411,1890,3148,1907,1834,1839,1845
0,255,58,8458,1912,3131,1908,1833,1840,1845
0,255,59,8458,1920,3135,1901,1832,1840,1846
0,255,60,8458,1911,3144,1907,1834,1840,1845
0,255,61,8505,1906,3146,1912,1834,1839,1845
0,255,62,8505,1916,3112,1918,1833,1839,1847
0,255,63,8536,1897,3138,1897,1833,1839,1845
0,255,64,8536,1930,3133,1895,1835,1841,1846
0,255,65,8567,1928,3117,1911,1834,1840,1845
0,255,66,8598,1899,3141,1924,1834,1841,1845
0,255,67,8598,1901,3154,1906,1833,1840,1846
0,255,68,8629,1917,3133,1892,1834,1840,1845
0,255,69,8645,1912,3140,1924,1835,1839,1847
0,255,70,8676,1902,3144,1898,1835,1842,1846
0,255,71,8676,1914,3166,1908,1835,1840,1845
0,255,72,8707,1920,3128,1889,1835,1841,1845
0,255,73,8707,1916,3120,1914,1833,1838,1844
0,255,74,8739,1891,3157,1919,1833,1840,1845
0,255,75,8754,1914,3149,1903,1832,1841,1846
0,255,76,8785,1917,3145,1900,1834,1840,1843
0,255,77,8801,1899,3141,1907,1835,1839,1846
0,255,78,8832,1917,3149,1884,1836,1841,1846
0,255,79,8832,1929,3116,1907,1834,1840,1845
0,255,80,8863,1907,3138,1908,1835,1841,1847
0,255,81,8863,1919,3138,1889,1834,1839,1844
0,255,82,8895,1914,3141,1899,1834,1840,1846
0,255,83,8926,1911,3142,1902,1834,1842,1846
0,255,84,8941,1912,3143,1908,1834,1840,1845
0,255,85,8957,1900,3133,1902,1834,1841,1846
0,255,86,8973,1912,3142,1902,1834,1840,1845
0,255,87,9004,1908,3134,1902,1834,1840,1844
0,255,88,9004,1921,3145,1895,1836,1841,1845
0,255,89,9035,1912,3147,1898,1834,1839,1845
0,255,90,9051,1906,3137,1910,1834,1840,1845
0,255,91,9082,1926,3128,1909,1834,1839,1846
0,255,92,9097,1918,3146,1911,1834,1840,1844
0,255,93,9113,1899,3145,1920,1835,1840,1845
0,255,94,9144,1923,3145,1906,1834,1839,1845
0,255,95,9144,1901,3141,1914,1835,1840,1845
0,255,96,9175,1910,3129,1894,1835,1842,1846
0,255,97,9191,1906,3122,1913,1833,1840,1845
0,255,98,9222,1907,3154,1904,1834,1840,1845
0,255,99,9238,1924,3111,1909,1833,1842,1845
0,255,100,9238,1920,3153,1901,1832,1840,1845
0,255,101,9269,1904,3127,1902,1835,1841,1845
0,255,102,9300,1892,3142,1912,1832,1840,1845
0,255,103,9300,1931,3124,1906,1835,1840,1845
0,255,104,9331,1925,3147,1914,1836,1842,1847
0,255,105,9347,1907,3143,1920,1834,1840,1845
0,255,106,9378,1933,3133,1908,1836,1840,1845
0,255,107,9378,1937,3140,1911,1833,1839,1846
0,255,108,9409,1926,3149,1910,1834,1839,1845
0,255,109,9441,1902,3130,1919,1834,1840,1846
0,255,110,9441,1908,3137,1895,1833,1839,1844
0,255,111,9472,1931,3121,1923,1834,1840,1846
0,255,112,9487,1921,3116,1918,1835,1842,1846
0,255,113,9503,1914,3130,1902,1835,1839,1845
0,255,114,9503,1913,3132,1919,1834,1842,1846
0,255,115,9550,1925,3134,1906,1834,1839,1846
0,255,116,9550,1918,3159,1904,1833,1840,1845
0,255,117,9581,1924,3139,1902,1835,1841,1845
0,255,118,9612,1902,3140,1904,1834,1839,1845
0,255,119,9628,1926,3131,1895,1835,1841,1845
0,255,120,9628,1894,3157,1898,1834,1841,1847
0,255,121,9675,1901,3150,1913,1833,1839,1844
0,255,122,9675,1916,3146,1917,1834,1839,1845
0,255,123,9706,1909,3139,1910,1833,1839,1847
0,255,124,9721,1923,3131,1897,1834,1840,1846
0,255,125,9753,1900,3137,1890,1834,1840,1845
0,255,126,9753,1922,3141,1915,1834,1840,1845
0,255,127,9784,1919,3147,1936,1833,1840,1846
0,255,128,9784,1918,3151,1916,1834,1840,1847
0,255,129,9815,1911,3140,1908,1834,1840,1845
0,255,130,9846,1914,3142,1917,1834,1842,1846
0,255,131,9877,1908,3149,1904,1832,1839,1846
0,255,132,9877,1918,3127,1916,1833,1840,1845
0,255,133,9893,1900,3140,1918,1834,1840,1845
0,255,134,9924,1912,3151,1911,1834,1840,1845
0,255,135,9924,1917,3126,1911,1835,1840,1845
0,255,136,9955,1906,3131,1934,1836,1842,1847
0,255,137,9987,1911,3142,1892,1834,1840,1844
0,255,138,9987,1904,3136,1904,1834,1841,1845
0,255,139,10018,1894,3144,1906,1833,1841,1846
0,255,140,10018,1911,3156,1905,1834,1840,1845
0,255,141,10049,1917,3151,1896,1834,1840,1845
0,255,142,10065,1928,3140,1906,1834,1839,1845
0,255,143,10080,1908,3145,1912,1834,1839,1846
0,255,144,10127,1913,3155,1911,1834,1840,1845
0,255,145,10127,1900,3140,1924,1834,1839,1845
0,255,146,10158,1920,3135,1897,1834,1840,1847
0,255,147,10158,1928,3137,1922,1833,1839,1846
0,255,148,10189,1912,3144,1899,1834,1840,1845
0,255,149,10189,1929,3144,1912,1835,1840,1845
0,255,150,10236,1912,3149,1907,1834,1840,1844
0,255,151,10267,1928,3154,1906,1835,1841,1845
0,255,152,10267,1930,3128,1905,1835,1842,1845
0,255,153,10283,1898,3131,1933,1833,1840,1844
0,255,154,10314,1914,3131,1918,1834,1842,1846
0,255,155,10314,1931,3133,1935,1834,1840,1847
0,255,156,10345,1907,3157,1930,1834,1842,1846
0,255,157,10345,1909,3165,1901,1835,1841,1845
0,255,158,10377,1924,3115,1922,1833,1840,1845
0,255,159,10423,1906,3142,1917,1834,1840,1844
0,255,160,10423,1917,3122,1880,1835,1841,1846
0,255,161,10439,1921,3161,1889,1833,1839,1844
0,255,162,10470,1916,3125,1918,1835,1840,1845
0,255,163,10486,1928,3138,1914,1832,1840,1846
0,255,164,10501,1900,3136,1925,1834,1842,1845
0,255,165,10517,1921,3155,1916,1834,1841,1845
0,255,166,10548,1917,3136,1911,1835,1841,1846
0,255,167,10548,1903,3130,1908,1835,1840,1845
0,255,168,10579,1913,3125,1920,1835,1841,1846
0,255,169,10611,1903,3153,1896,1833,1841,1844
0,255,170,10611,1900,3132,1911,1833,1840,1846
0,255,171,10642,1881,3140,1917,1835,1841,1844
0,255,173,10689,1912,3144,1895,1835,1842,1845
0,255,174,10689,1901,3133,1921,1834,1840,1844
0,255,175,10720,1911,3163,1920,1834,1841,1846
0,255,176,10751,1918,3135,1921,1831,1841,1847
0,255,177,10751,1903,3132,1905,1834,1840,1845
0,255,178,10782,1910,3149,1896,1832,1841,1845
0,255,179,10782,1931,3131,1909,1834,1841,1847
0,255,180,10813,1920,3140,1898,1834,1842,1846
0,255,181,10829,1902,3144,1911,1835,1841,1845
0,255,182,10845,1889,3133,1924,1834,1840,1845
0,255,183,10876,1936,3135,1892,1835,1840,1846
0,255,184,10907,1938,3117,1906,1834,1842,1847
0,255,185,10907,1904,3135,1918,1835,1839,1845
0,255,186,10938,1914,3150,1912,1834,1841,1846
0,255,187,10954,1914,3137,1911,1833,1840,1847
0,255,188,10985,1918,3112,1909,1835,1840,1845
0,255,189,10985,1907,3135,1911,1835,1840,1845
0,255,190,11001,1904,3144,1907,1833,1840,1845
0,255,191,11032,1923,3132,1903,1835,1841,1846
0,255,193,11079,1916,3132,1889,1834,1840,1846
0,255,194,11079,1896,3135,1907,1834,1840,1846
0,255,195,11125,1911,3152,1922,1834,1841,1846
0,255,196,11125,1910,3139,1911,1834,1840,1846
0,255,197,11157,1902,3133,1909,1834,1840,1846
0,255,198,11172,1901,3158,1894,1832,1839,1844
0,255,199,11188,1918,3139,1917,1834,1839,1845
0,255,200,11203,1900,3148,1935,1833,1840,1846
0,255,201,11219,1924,3113,1905,1834,1838,1844
0,255,202,11235,1917,3149,1909,1835,1839,1845
0,255,203,11266,1909,3147,1923,1832,1838,1846
0,255,204,11281,1918,3151,1903,1834,1840,1845
0,255,205,11313,1899,3147,1913,1835,1842,1846
0,255,206,11313,1904,3134,1886,1834,1840,1845
0,255,207,11344,1916,3095,1899,1834,1841,1846
0,255,208,11375,1892,3143,1909,1833,1841,1846
0,255,209,11375,1924,3144,1903,1833,1839,1845
0,255,210,11406,1932,3148,1891,1834,1840,1845
0,255,211,11422,1905,3126,1937,1834,1839,1846
0,255,212,11469,1931,3137,1911,1834,1841,1845
0,255,213,11469,1945,3121,1913,1834,1841,1845
0,255,214,11469,1908,3135,1906,1834,1840,1845
0,255,215,11515,1919,3134,1915,1835,1841,1846
0,255,216,11515,1904,3135,1902,1834,1843,1846
0,255,217,11547,1906,3147,1917,1835,1842,1846
0,255,218,11562,1906,3148,1907,1835,1840,1844
0,255,219,11578,1930,3131,1904,1831,1839,1846
0,255,220,11593,1910,3143,1897,1834,1840,1845
0,255,221,11625,1918,3139,1907,1835,1840,1845
0,255,222,11625,1928,3128,1913,1834,1840,1845
0,255,223,11656,1896,3130,1904,1835,1839,1846
0,255,224,11656,1918,3161,1912,1834,1839,1846
0,255,225,11687,1924,3116,1913,1834,1839,1845
0,255,226,11718,1891,3143,1904,1834,1840,1846
0,255,227,11765,1911,3162,1900,1833,1838,1845
0,255,228,11781,1920,3140,1918,1834,1840,1845
0,255,229,11781,1912,3132,1912,1834,1841,1845
0,255,230,11812,1916,3158,1917,1834,1839,1844
0,255,231,11812,1903,3126,1894,1833,1839,1845
0,255,232,11812,1927,3130,1906,1833,1841,1846
0,255,233,11859,1902,3120,1914,1835,1840,1845
0,255,234,11890,1921,3135,1909,1834,1841,1846
0,255,235,11890,1928,3143,1909,1834,1841,1846
0,255,236,11905,1926,3128,1903,1834,1841,1846
0,255,237,11921,1912,3156,1905,1835,1841,1845
0,255,238,11952,1904,3136,1918,1835,1841,1845
0,255,239,11952,1923,3130,1916,1834,1840,1845
0,255,240,11983,1884,3138,1923,1834,1842,1846
0,255,241,11983,1921,3150,1897,1834,1840,1843
0,255,242,12015,1916,3143,1909,1835,1840,1846
0,255,243,12046,1908,3136,1912,1834,1841,1847
0,255,244,12046,1901,3137,1908,1833,1841,1845
0,255,245,12077,1928,3130,1904,1835,1842,1845
0,255,246,12108,1914,3128,1935,1834,1840,1845
0,255,248,12139,1892,3154,1925,1833,1839,1846
0,255,249,12155,1908,3151,1919,1834,1840,1845
0,255,250,12186,1915,3131,1914,1835,1841,1845
0,255,251,12186,1927,3153,1904,1833,1839,1845
0,255,252,12217,1936,3140,1907,1834,1840,1844
0,255,253,12233,1910,3146,1884,1834,1841,1845
0,255,254,12264,1930,3135,1903,1833,1838,1844
0,255,255,12264,1895,3157,1909,1834,1840,1845
0,255,0,12295,1905,3131,1910,1833,1841,1846
0,255,1,12311,1903,3135,1916,1834,1840,1845
0,255,2,12342,1917,3109,1902,1835,1842,1845
0,255,3,12373,1918,3137,1917,1833,1840,1845
0,255,4,12373,1911,3139,1923,1834,1841,1845
0,255,5,12405,1911,3157,1910,1835,1840,1845
0,255,6,12405,1908,3113,1915,1834,1838,1844
0,255,7,12436,1906,3136,1918,1834,1840,1845
0,255,8,12451,1901,3131,1896,1833,1841,1846
0,255,9,12483,1907,3147,1909,1835,1840,1845
0,255,10,12514,1904,3143,1912,1835,1840,1846
0,255,11,12514,1902,3147,1918,1834,1840,1846
0,255,12,12514,1920,3128,1914,1834,1841,1845
0,255,13,12545,1924,3132,1897,1835,1841,1845
0,255,14,12561,1927,3126,1905,1834,1839,1844
0,255,15,12592,1914,3131,1905,1834,1839,1846
0,255,16,12623,1917,3138,1913,1834,1841,1846
0,255,17,12623,1910,3159,1931,1834,1840,1844
0,255,18,12639,1914,3126,1912,1835,1840,1845
0,255,19,12685,1919,3132,1887,1834,1839,1846
0,255,20,12685,1916,3107,1900,1834,1841,1845
0,255,21,12717,1883,3146,1923,1835,1841,1845
0,255,22,12717,1916,3136,1915,1834,1840,1845
0,255,23,12748,1922,3136,1905,1834,1840,1845
0,255,24,12763,1907,3134,1915,1833,1841,1845
0,255,25,12795,1912,3130,1906,1835,1840,1845
0,255,26,12826,1888,3133,1912,1835,1841,1846
0,255,27,12826,1908,3132,1912,1834,1840,1846
0,255,28,12841,1899,3145,1919,1835,1839,1845
0,255,29,12857,1936,3130,1909,1834,1841,1845
0,255,30,12873,1905,3129,1925,1833,1839,1845
0,255,31,12919,1914,3146,1909,1834,1840,1843
0,255,32,12919,1910,3141,1914,1833,1840,1846
0,255,33,12951,1919,3144,1898,1834,1840,1845
0,255,34,12951,1911,3125,1917,1835,1840,1846
0,255,35,12997,1911,3130,1924,1836,1841,1847
0,255,36,12997,1907,3147,1919,1833,1840,1845
0,255,37,13029,1919,3133,1920,1835,1841,1846
0,255,38,13060,1914,3136,1887,1834,1838,1844
0,255,39,13060,1925,3138,1897,1834,1839,1846
0,255,40,13060,1893,3147,1919,1833,1839,1846
0,255,41,13091,1917,3134,1915,1835,1839,1845
0,255,42,13138,1919,3131,1912,1835,1840,1847
0,255,43,13138,1922,3114,1917,1833,1839,1846
0,255,44,13169,1920,3136,1926,1833,1839,1845
0,255,45,13169,1880,3126,1902,1835,1842,1845
0,255,46,13200,1916,3157,1901,1836,1842,1846
0,255,47,13200,1933,3113,1917,1834,1840,1845
0,255,48,13247,1920,3139,1921,1834,1840,1847
0,255,49,13247,1916,3121,1913,1833,1840,1843
0,255,50,13278,1914,3134,1899,1836,1839,1845
0,255,51,13294,1927,3155,1911,1834,1839,1846
0,255,52,13309,1913,3136,1910,1834,1841,1845
0,255,53,13325,1928,3115,1905,1835,1840,1845
0,255,54,13356,1903,3120,1904,1833,1839,1845
0,255,55,13356,1909,3130,1932,1834,1841,1845
0,255,56,13387,1923,3158,1910,1833,1841,1846
0,255,57,13419,1916,3119,1905,1833,1841,1845
0,255,58,13419,1911,3144,1931,1834,1841,1846
0,255,59,13450,1907,3147,1916,1834,1839,1846
0,255,60,13465,1940,3150,1905,1834,1841,1845
0,255,61,13497,1902,3131,1892,1835,1842,1844
0,255,62,13497,1906,3135,1913,1834,1839,1844
0,255,63,13528,1918,3134,1902,1835,1839,1845
0,255,64,13543,1918,3148,1907,1834,1841,1846
0,255,65,13575,1904,3153,1913,1836,1843,1846
0,255,66,13575,1915,3134,1920,1835,1840,1846
0,255,67,13606,1910,3118,1916,1835,1841,1847
0,255,68,13621,1905,3140,1910,1834,1841,1845
0,255,69,13653,1905,3155,1904,1835,1842,1847
0,255,70,13684,1917,3142,1895,1834,1840,1844
0,255,71,13684,1900,3145,1913,1833,1841,1845
0,255,72,13684,1919,3183,1902,1833,1842,1846
0,255,73,13715,1915,3129,1913,1834,1840,1843
0,255,74,13746,1892,3145,1900,1835,1840,1845
0,255,75,13746,1919,3132,1897,1834,1840,1846
0,255,76,13777,1905,3123,1915,1834,1841,1845
0,255,77,13793,1895,3140,1897,1835,1842,1845
0,255,78,13824,1908,3134,1895,1834,1841,1845
0,255,79,13824,1920,3166,1899,1833,1841,1845
0,255,80,13871,1926,3143,1913,1834,1841,1847
0,255,81,13871,1906,3147,1899,1834,1840,1844
0,255,82,13902,1915,3158,1901,1835,1840,1846
0,255,83,13933,1912,3127,1918,1834,1840,1846
0,255,84,13933,1915,3140,1909,1835,1840,1845
0,255,85,13965,1914,3120,1907,1834,1841,1846
0,255,86,13965,1906,3157,1907,1834,1840,1845
0,255,87,13996,1899,3136,1921,1834,1839,1845
0,255,88,13996,1914,3135,1940,1833,1841,1846
0,255,89,14027,1917,3140,1906,1834,1840,1845
0,255,90,14058,1920,3130,1897,1834,1840,1845
0,255,91,14089,1916,3151,1911,1835,1841,1846
0,255,92,14089,1905,3142,1905,1835,1841,1845
0,255,93,14121,1899,3140,1909,1834,1842,1846
0,255,94,14121,1911,3127,1929,1834,1840,1844
0,255,95,14152,1928,3142,1907,1833,1840,1845
0,255,96,14183,1916,3132,1915,1833,1841,1846
0,255,97,14183,1917,3155,1912,1835,1840,1845
0,255,98,14214,1929,3132,1907,1835,1840,1847
0,255,99,14230,1924,3111,1919,1833,1839,1845
0,255,100,14261,1926,3126,1908,1834,1839,1844
0,255,101,14261,1919,3128,1903,1835,1842,1845
0,255,102,14292,1925,3083,1894,1833,1840,1845
0,255,103,14308,1907,3149,1912,1834,1840,1845
0,255,104,14323,1924,3123,1924,1834,1841,1846
0,255,105,14339,1918,3144,1908,1833,1841,1844
0,255,106,14370,1936,3130,1907,1835,1841,1845
0,255,107,14370,1902,3140,1932,1834,1839,1846
0,255,108,14401,1926,3152,1911,1834,1839,1845
0,255,109,14448,1942,3134,1905,1834,1841,1845
0,255,110,14448,1901,3139,1906,1834,1839,1844
0,255,111,14448,1894,3148,1905,1834,1841,1845
0,255,112,14479,1926,3139,1924,1834,1841,1846
0,255,113,14495,1903,3147,1915,1834,1839,1844
0,255,114,14526,1912,3131,1907,1834,1840,1843
0,255,115,14557,1906,3130,1907,1834,1839,1847
0,255,116,14557,1918,3140,1905,1834,1840,1845
0,255,117,14589,1917,3148,1874,1834,1841,1845
0,255,118,14589,1911,3117,1923,1834,1840,1845
0,255,119,14620,1928,3152,1896,1833,1840,1844
0,255,120,14635,1906,3140,1880,1832,1840,1846
0,255,121,14667,1920,3133,1909,1835,1841,1845
0,255,122,14698,1895,3132,1925,1834,1840,1846
0,255,123,14698,1905,3141,1903,1834,1841,1846
0,255,124,14729,1921,3131,1907,1834,1841,1845
0,255,125,14729,1909,3134,1895,1835,1841,1846
0,255,126,14760,1910,3131,1903,1834,1841,1845
0,255,127,14776,1898,3156,1907,1834,1841,1845
0,255,128,14807,1906,3119,1888,1833,1841,1846
0,255,129,14807,1898,3131,1922,1834,1840,1845
0,255,130,14854,1901,3126,1898,1835,1842,1846
0,255,131,14854,1942,3124,1912,1833,1839,1847
0,255,132,14901,1903,3149,1907,1835,1841,1847
0,255,133,14901,1921,3137,1906,1835,1840,1846
0,255,134,14932,1894,3132,1922,1834,1840,1844
0,255,135,14932,1920,3127,1909,1834,1840,1846
0,255,136,14947,1922,3131,1914,1834,1841,1847
0,255,137,14979,1912,3135,1907,1835,1840,1845
0,255,138,14979,1922,3145,1919,1835,1839,1846
0,255,139,15010,1872,3150,1903,1834,1840,1847
0,255,140,15025,1923,3149,1893,1834,1840,1845
0,255,141,15057,1917,3154,1915,1835,1843,1845
0,255,142,15057,1912,3158,1903,1834,1839,1844
0,255,143,15088,1922,3141,1933,1833,1841,1845
0,255,144,15119,1924,3125,1921,1834,1839,1846
0,255,145,15135,1917,3120,1902,1833,1839,1845
0,255,146,15150,1897,3149,1910,1834,1841,1846
0,255,147,15166,1920,3141,1904,1834,1840,1847
0,255,148,15181,1916,3134,1913,1835,1841,1847
0,255,149,15213,1925,3121,1926,1835,1841,1847
0,255,150,15228,1916,3128,1907,1834,1840,1846
0,255,151,15259,1901,3152,1907,1834,1840,1845
0,255,152,15259,1882,3156,1903,1831,1840,1846
0,255,153,15291,1931,3129,1919,1834,1842,1847
0,255,154,15306,1909,3137,1923,1835,1839,1847
0,255,155,15337,1911,3134,1907,1834,1839,1845
0,255,156,15337,1923,3147,1896,1834,1840,1845
0,255,157,15369,1914,3137,1907,1835,1841,1847
0,255,158,15369,1906,3142,1907,1835,1839,1845
0,255,159,15400,1889,3123,1909,1834,1841,1845
0,255,160,15431,1919,3135,1894,1833,1842,1846
0,255,161,15447,1917,3133,1911,1834,1840,1845
0,255,162,15462,1901,3152,1902,1834,1839,1846
0,255,163,15493,1911,3142,1894,1834,1839,1845
0,255,164,15493,1899,3135,1903,1835,1840,1846
0,255,165,15525,1906,3145,1898,1835,1841,1846
0,255,166,15556,1928,3154,1905,1834,1839,1844
0,255,167,15556,1911,3115,1924,1834,1840,1845
0,255,168,15556,1875,3150,1903,1833,1842,1846
0,255,169,15587,1923,3148,1897,1833,1840,1844
0,255,170,15618,1934,3142,1909,1835,1840,1845
0,255,171,15634,1909,3130,1924,1833,1840,1845
0,255,172,15649,1917,3156,1899,1834,1841,1845
0,255,173,15665,1928,3134,1902,1835,1841,1846
0,255,174,15696,1894,3147,1910,1835,1841,1845
0,255,176,15743,1904,3135,1913,1834,1842,1847
0,255,177,15743,1894,3127,1905,1834,1839,1844
0,255,178,15774,1924,3159,1903,1834,1841,1846
0,255,179,15805,1924,3141,1906,1835,1841,1847
0,255,180,15805,1899,3141,1914,1835,1840,1845
0,255,181,15837,1905,3143,1922,1834,1840,1846
0,255,182,15852,1912,3119,1900,1834,1839,1845
0,255,183,15883,1915,3148,1921,1833,1842,1845
0,255,184,15883,1906,3144,1920,1832,1841,1847
0,255,185,15930,1915,3145,1915,1835,1841,1847
0,255,186,15930,1900,3139,1913,1835,1841,1845
0,255,187,15961,1921,3149,1907,1833,1840,1845
0,255,188,15961,1921,3138,1917,1834,1841,1845
0,255,189,15993,1908,3134,1913,1834,1841,1847
0,255,190,15993,1906,3137,1897,1834,1840,1845
0,255,191,16024,1906,3143,1912,1835,1840,1845
0,255,193,16071,1916,3139,1918,1833,1840,1845
