SensorID,DataType,SeqNo,TimeStamp,AccX,AccY,AccZ,GyroX,GyroY,GyroZ
0,255,169,27972,1966,2068,2778,1839,1839,1864
0,255,170,27972,1956,2073,2800,1838,1838,1863
0,255,171,27972,1951,2079,2810,1837,1839,1864
0,255,172,27972,1954,2084,2808,1837,1838,1863
0,255,173,27972,1965,2059,2797,1838,1838,1864
0,255,174,27972,1946,2085,2789,1837,1838,1864
0,255,175,27988,1948,2067,2795,1837,1837,1863
0,255,176,27988,1937,2090,2791,1837,1838,1864
0,255,177,28019,1942,2081,2776,1835,1838,1863
0,255,178,28035,1961,2067,2807,1837,1837,1863
0,255,179,28066,1938,2067,2807,1837,1838,1864
0,255,180,28081,1961,2083,2792,1838,1839,1864
0,255,181,28097,1943,2086,2804,1838,1838,1863
0,255,182,28128,1950,2081,2794,1837,1838,1865
0,255,183,28128,1958,2068,2811,1837,1838,1863
0,255,184,28159,1971,2075,2798,1838,1839,1865
0,255,186,28206,1971,2069,2787,1837,1838,1863
0,255,187,28206,1951,2070,2807,1837,1839,1864
0,255,188,28237,1949,2060,2792,1837,1838,1863
0,255,189,28269,1955,2063,2802,1837,1838,1864
0,255,190,28269,1964,2079,2787,1836,1837,1865
0,255,191,28300,1951,2074,2794,1837,1837,1862
0,255,193,28331,1964,2093,2795,1836,1838,1862
0,255,194,28362,1964,2069,2797,1836,1838,1863
0,255,195,28378,1982,2081,2783,1837,1839,1864
0,255,196,28378,1965,2063,2799,1837,1837,1863
0,255,198,28425,1949,2085,2801,1837,1838,1864
0,255,199,28456,1952,2087,2816,1837,1839,1865
0,255,200,28487,1952,2086,2803,1838,1839,1863
0,255,201,28487,1952,2079,2788,1838,1838,1863
0,255,202,28487,1964,2078,2790,1837,1838,1863
0,255,203,28518,1949,2077,2793,1836,1839,1864
0,255,204,28549,1960,2078,2814,1838,1839,1865
0,255,205,28565,1948,2090,2802,1837,1838,1864
0,255,206,28596,1957,2079,2797,1837,1838,1865
0,255,207,28596,1964,2083,2795,1837,1838,1863
0,255,208,28627,1948,2057,2805,1838,1839,1863
0,255,209,28627,1953,2084,2797,1836,1837,1862
0,255,210,28659,1956,2070,2805,1837,1838,1864
0,255,211,28690,1944,2071,2789,1836,1839,1864
0,255,212,28705,1940,2083,2798,1836,1838,1862
0,255,213,28721,1950,2086,2788,1837,1838,1863
0,255,214,28737,1947,2084,2833,1836,1836,1863
0,255,215,28768,1942,2076,2792,1837,1838,1864
0,255,216,28768,1943,2081,2815,1838,1839,1863
0,255,217,28799,1928,2071,2784,1836,1838,1862
0,255,218,28830,1962,2071,2786,1836,1839,1863
0,255,219,28846,1955,2058,2776,1837,1839,1864
0,255,220,28877,1944,2069,2793,1837,1838,1863
0,255,221,28877,1960,2063,2793,1838,1838,1864
0,255,222,28893,1949,2081,2803,1836,1838,1864
0,255,223,28924,1950,2087,2805,1836,1839,1863
0,255,224,28924,1950,2068,2809,1838,1839,1863
0,255,225,28955,1963,2066,2783,1837,1838,1863
0,255,226,28971,1957,2065,2797,1837,1839,1863
0,255,227,28986,1947,2089,2786,1837,1839,1865
0,255,228,29017,1951,2054,2798,1838,1839,1864
0,255,229,29033,1946,2071,2793,1837,1838,1864
0,255,230,29064,1946,2067,2791,1838,1839,1864
0,255,231,29064,1937,2068,2798,1838,1838,1863
0,255,232,29095,1956,2075,2795,1838,1839,1863
0,255,233,29111,1974,2076,2798,1836,1837,1862
0,255,234,29127,1961,2079,2808,1836,1837,1863
0,255,235,29158,1947,2083,2799,1835,1839,1865
0,255,236,29158,1942,2083,2795,1836,1838,1863
0,255,237,29205,1969,2039,2806,1837,1839,1863
0,255,238,29205,1947,2073,2808,1835,1838,1864
0,255,239,29236,1954,2070,2793,1836,1839,1864
0,255,240,29267,1955,2060,2788,1837,1838,1863
0,255,241,29267,1966,2079,2811,1837,1837,1862
0,255,242,29298,1942,2079,2793,1837,1838,1864
0,255,243,29298,1946,2074,2784,1835,1839,1864
0,255,244,29329,1944,2059,2798,1837,1840,1865
0,255,245,29329,1952,2066,2785,1838,1838,1864
0,255,246,29361,1962,2081,2793,1836,1838,1864
0,255,247,29392,1951,2081,2776,1836,1837,1863
0,255,248,29392,1942,2088,2801,1837,1839,1863
0,255,249,29423,1948,2070,2799,1838,1839,1863
0,255,250,29485,1959,2079,2784,1837,1840,1863
0,255,251,29485,1956,2065,2793,1836,1839,1864
0,255,252,29485,1953,2065,2800,1836,1839,1864
0,255,253,29501,1954,2061,2788,1837,1838,1864
0,255,254,29532,1960,2077,2780,1836,1838,1864
0,255,255,29532,1936,2078,2810,1835,1838,1863
0,255,0,29563,1924,2074,2810,1838,1840,1863
0,255,1,29563,1957,2078,2791,1836,1838,1863
0,255,2,29595,1955,2066,2778,1837,1839,1863
0,255,3,29610,1947,2072,2785,1835,1838,1864
0,255,4,29641,1960,2067,2804,1837,1838,1863
0,255,5,29673,1944,2059,2795,1837,1839,1864
0,255,6,29688,1965,2079,2815,1835,1838,1863
0,255,7,29688,1967,2081,2779,1836,1839,1863
0,255,8,29719,1960,2061,2780,1837,1839,1863
0,255,9,29751,1975,2069,2808,1837,1839,1864
0,255,11,29782,1971,2063,2802,1835,1839,1864
0,255,12,29797,1968,2075,2767,1836,1839,1862
0,255,13,29829,1941,2068,2813,1837,1839,1863
0,255,14,29829,1953,2091,2802,1835,1838,1864
0,255,15,29860,1950,2065,2783,1836,1839,1864
0,255,16,29875,1969,2091,2786,1837,1839,1863
0,255,17,29907,1935,2085,2805,1837,1840,1864
0,255,18,29907,1946,2069,2812,1836,1839,1863
0,255,19,29938,1949,2058,2785,1836,1839,1864
0,255,20,29938,1940,2087,2784,1836,1839,1863
0,255,21,29969,1964,2077,2809,1838,1839,1864
0,255,22,30000,1969,2066,2794,1835,1838,1864
0,255,23,30000,1963,2078,2786,1836,1839,1863
0,255,24,30031,1970,2070,2780,1837,1840,1863
0,255,25,30063,1961,2077,2791,1836,1838,1862
0,255,26,30094,1945,2067,2794,1836,1839,1863
0,255,27,30094,1948,2089,2800,1836,1839,1865
0,255,28,30125,1944,2074,2791,1836,1839,1862
0,255,29,30125,1952,2068,2794,1837,1838,1864
0,255,30,30141,1960,2091,2792,1835,1839,1864
0,255,31,30172,1944,2070,2815,1836,1839,1863
0,255,32,30187,1972,2066,2795,1837,1839,1863
0,255,33,30203,1955,2079,2793,1836,1839,1864
0,255,34,30234,1952,2079,2793,1837,1839,1863
0,255,35,30250,1952,2075,2786,1835,1840,1864
0,255,36,30281,1960,2082,2785,1836,1839,1863
0,255,37,30281,1962,2085,2807,1837,1839,1864
0,255,38,30328,1970,2078,2788,1837,1840,1865
0,255,39,30328,1964,2080,2810,1836,1839,1863
0,255,40,30359,1963,2087,2790,1837,1839,1863
0,255,41,30359,1972,2060,2803,1836,1839,1863
0,255,42,30390,1956,2080,2796,1837,1840,1863
0,255,43,30390,1954,2077,2791,1835,1840,1864
0,255,44,30421,1949,2066,2810,1836,1839,1863
0,255,45,30437,1942,2071,2813,1837,1839,1863
0,255,46,30468,1954,2054,2808,1836,1839,1863
0,255,47,30468,1957,2073,2806,1837,1839,1863
0,255,48,30499,1960,2077,2787,1836,1839,1864
0,255,49,30531,1945,2071,2812,1836,1839,1862
0,255,50,30531,1945,2080,2790,1836,1839,1863
0,255,51,30562,1939,2086,2810,1835,1839,1864
0,255,52,30562,1944,2056,2812,1836,1839,1862
0,255,53,30593,1939,2073,2801,1837,1839,1864
0,255,54,30609,1954,2071,2814,1837,1840,1864
0,255,55,30640,1952,2081,2790,1836,1840,1864
0,255,56,30640,1955,2073,2777,1837,1840,1863
0,255,57,30671,1938,2095,2808,1836,1839,1863
0,255,58,30702,1973,2086,2782,1836,1839,1864
0,255,59,30718,1942,2075,2805,1836,1840,1864
0,255,60,30749,1958,2084,2787,1838,1840,1865
0,255,61,30780,1942,2063,2805,1837,1839,1863
0,255,62,30780,1953,2075,2774,1836,1839,1864
0,255,63,30796,1955,2071,2796,1837,1839,1863
0,255,64,30811,1945,2066,2777,1837,1840,1863
0,255,65,30843,1966,2075,2780,1836,1839,1863
0,255,66,30843,1940,2065,2808,1836,1840,1863
0,255,67,30889,1952,2068,2812,1837,1840,1864
0,255,68,30889,1960,2076,2792,1836,1839,1863
0,255,69,30921,1943,2069,2809,1838,1840,1864
0,255,70,30921,1960,2085,2808,1836,1839,1863
0,255,71,30952,1955,2067,2803,1836,1839,1863
0,255,72,30999,1947,2069,2795,1835,1840,1863
0,255,73,30999,1959,2076,2811,1836,1839,1863
0,255,74,30999,1974,2074,2801,1836,1840,1863
0,255,75,31030,1956,2084,2803,1836,1840,1865
0,255,76,31061,1961,2071,2786,1836,1839,1863
0,255,77,31061,1955,2079,2801,1836,1839,1864
0,255,78,31092,1940,2086,2806,1836,1839,1863
0,255,79,31092,1956,2093,2798,1837,1839,1863
0,255,80,31123,1947,2079,2787,1836,1840,1864
0,255,81,31123,1960,2077,2798,1836,1837,1862
0,255,82,31155,1948,2074,2787,1836,1840,1863
0,255,83,31201,1955,2090,2811,1835,1840,1865
0,255,84,31201,1940,2075,2811,1836,1839,1862
0,255,85,31233,1963,2081,2805,1837,1840,1864
0,255,86,31233,1927,2078,2775,1837,1839,1863
0,255,87,31264,1951,2066,2805,1836,1839,1863
0,255,88,31264,1942,2071,2793,1836,1840,1863
0,255,89,31295,1950,2070,2803,1836,1838,1862
0,255,90,31342,1943,2078,2794,1837,1841,1863
0,255,91,31342,2066,2037,2803,1835,1839,1806
0,255,92,31373,1945,2074,2802,1835,1839,1860
0,255,93,31389,1947,2075,2780,1836,1839,1865
0,255,94,31389,1830,2108,2804,1837,1839,1949
0,255,95,31435,2051,2068,2806,1836,1840,1883
0,255,96,31435,1942,2075,2807,1836,1840,1864
0,255,97,31467,1959,2057,2809,1837,1839,1863
0,255,98,31467,1952,2083,2810,1836,1840,1864
0,255,99,31498,1954,2056,2801,1837,1839,1865
0,255,100,31513,1970,2089,2807,1836,1839,1862
0,255,101,31529,1944,2080,2811,1836,1841,1864
0,255,102,31560,1956,2082,2808,1836,1839,1863
0,255,103,31560,1959,2072,2801,1837,1839,1864
0,255,104,31591,1950,2074,2791,1836,1839,1864
0,255,105,31638,1940,2074,2795,1836,1839,1862
0,255,106,31638,1939,2074,2811,1835,1839,1863
0,255,107,31638,1944,2080,2799,1835,1839,1864
0,255,108,31685,1938,2075,2782,1836,1839,1863
0,255,109,31701,1935,2072,2777,1837,1839,1864
0,255,110,31701,1953,2067,2795,1836,1838,1863
0,255,111,31716,2019,2293,2796,1837,1839,1849
0,255,112,31763,2026,2123,2819,1838,1840,1849
0,255,113,31763,1909,2132,2848,1835,1841,1880
0,255,114,31794,1983,2185,2799,1836,1838,1840
0,255,115,31810,1973,2186,2665,1835,1839,1867
0,255,116,31841,1878,1965,2755,1836,1840,1849
0,255,117,31841,1764,2254,3037,1839,1840,1859
0,255,118,31872,1880,2063,2944,1835,1840,1843
0,255,119,31872,2051,2235,2843,1840,1839,1889
0,255,120,31903,1910,2132,3120,1837,1837,1914
0,255,121,31935,2062,1776,2948,1839,1840,1866
0,255,122,31950,1857,2101,2926,1833,1841,1870
0,255,123,31950,1790,1645,2728,1834,1837,1829
0,255,125,31997,2004,2117,2627,1835,1834,1875
0,255,126,32013,2014,2283,3100,1840,1839,1868
0,255,127,32044,1879,2288,2705,1840,1840,1872
0,255,128,32075,1931,1938,2600,1829,1839,1887
0,255,129,32075,1907,2070,3379,1834,1838,1860
0,255,130,32122,2001,2137,2700,1839,1839,1885
0,255,131,32122,1734,2292,3229,1840,1841,1912
0,255,132,32122,1784,2196,3007,1831,1839,1877
0,255,133,32169,2077,1987,2214,1834,1838,1858
0,255,134,32184,1742,2009,3405,1842,1840,1846
0,255,135,32200,2049,2174,2677,1835,1841,1854
0,255,136,32231,2108,2115,2614,1829,1835,1868
0,255,137,32231,2081,2150,3030,1837,1842,1900
0,255,138,32262,1852,1992,3127,1843,1840,1899
0,255,139,32278,1779,2175,2907,1833,1839,1885
0,255,140,32293,2165,2194,2092,1833,1835,1863
0,255,141,32325,1891,2239,2652,1841,1841,1866
0,255,142,32340,2126,1993,2463,1823,1840,1857
0,255,143,32340,1954,2220,2828,1836,1841,1868
0,255,144,32387,2045,2060,2958,1838,1838,1867
0,255,145,32387,2043,2071,2381,1837,1836,1896
0,255,146,32403,1856,1930,2597,1838,1841,1890
0,255,147,32434,1863,1996,3121,1829,1841,1852
0,255,148,32434,1937,1998,3104,1841,1839,1858
0,255,149,32465,1979,2407,2474,1838,1837,1870
0,255,150,32512,1915,2135,2966,1840,1840,1887
0,255,151,32512,1884,1882,3855,1836,1841,1883
0,255,152,32543,1586,2031,3454,1838,1838,1879
0,255,153,32543,1964,1803,2681,1834,1836,1862
0,255,154,32574,1870,2047,3301,1832,1839,1863
0,255,155,32590,1844,2201,3060,1832,1841,1906
0,255,156,32621,1928,2381,2529,1847,1840,1879
0,255,157,32621,2070,1819,2320,1831,1838,1884
0,255,158,32652,1893,1871,3020,1831,1843,1834
0,255,159,32668,2172,2298,2435,1831,1832,1831
0,255,160,32699,2276,2166,2675,1839,1843,1898
0,255,161,32699,1938,2059,2854,1829,1835,1878
0,255,162,32730,1881,2181,2835,1842,1847,1880
0,255,163,32761,1855,2088,2940,1827,1839,1841
0,255,164,32761,2029,1746,3122,1835,1838,1866
0,255,165,32793,1998,1848,2333,1847,1846,1785
0,255,166,32808,1946,1828,2688,1835,1837,1890
0,255,167,32824,1937,2030,3132,1835,1840,1893
0,255,168,32855,1917,1812,2809,1839,1840,1889
0,255,169,32886,1930,2169,2903,1829,1848,1942
0,255,170,32886,2010,2163,2754,1835,1839,1917
0,255,171,32886,1862,1807,3328,1837,1838,1927
0,255,172,32917,1803,1925,2825,1836,1838,1888
0,255,173,32964,1803,2047,2799,1836,1843,1897
0,255,174,32964,2032,1857,2441,1831,1835,1828
0,255,175,32995,2047,1933,2789,1846,1839,1827
0,255,176,33011,1942,1937,2749,1839,1840,1829
0,255,177,33011,1999,2090,2862,1835,1838,1857
0,255,178,33042,1835,2320,2882,1832,1837,1884
0,255,179,33042,1989,1763,2971,1833,1841,1870
0,255,180,33073,1946,2087,2822,1835,1839,1849
0,255,181,33105,1985,1890,2830,1838,1840,1860
0,255,182,33136,1938,1841,2912,1836,1839,1834
0,255,183,33136,1970,2286,2722,1840,1839,1809
0,255,184,33167,2000,2091,2833,1834,1842,1834
0,255,185,33167,2066,1928,2786,1835,1839,1862
0,255,186,33198,1880,1910,2791,1832,1839,1861
0,255,187,33214,1993,2174,2695,1832,1837,1852
0,255,188,33245,1924,2024,2862,1837,1839,1843
0,255,189,33245,1987,2140,2783,1837,1840,1867
0,255,190,33276,2013,2231,2774,1835,1840,1874
0,255,191,33307,1873,1979,2827,1838,1840,1833
0,255,193,33339,1962,1978,2772,1836,1839,1878
0,255,194,33339,1975,2005,2782,1837,1839,1859
0,255,195,33370,1960,2103,2793,1836,1840,1862
0,255,196,33385,1943,2038,2799,1835,1839,1863
0,255,197,33417,1945,2079,2803,1837,1840,1864
0,255,198,33448,1927,2074,2807,1836,1838,1863
0,255,199,33448,1957,2081,2785,1836,1839,1864
0,255,200,33479,1950,2065,2794,1837,1841,1865
0,255,201,33495,1827,2095,2879,1834,1839,1900
0,255,202,33495,1964,2081,2798,1835,1839,1864
0,255,203,33526,1977,2068,2839,1839,1839,1865
0,255,204,33557,1906,2084,2811,1839,1841,1909
0,255,205,33573,1914,2099,2791,1840,1842,1872
0,255,206,33604,1942,2089,2787,1831,1838,1865
0,255,207,33604,1948,2082,2793,1832,1837,1863
0,255,208,33635,1947,2074,2787,1846,1846,1864
0,255,209,33635,1936,2084,2786,1839,1840,1855
0,255,210,33666,1849,2018,2766,1838,1840,1864
0,255,211,33682,1935,2098,2773,1838,1840,1863
0,255,212,33713,1956,2068,2808,1855,1848,1863
0,255,213,33713,1917,2091,2796,1858,1851,1863
0,255,215,33775,1938,2090,2774,1836,1840,1864
0,255,216,33775,1936,2088,2801,1836,1840,1865
0,255,217,33807,1936,2083,2809,1836,1839,1864
0,255,218,33838,1864,2132,2803,1837,1839,1920
0,255,219,33838,1928,2087,2802,1836,1839,1865
0,255,220,33869,1903,2079,2787,1837,1839,1863
0,255,221,33869,1936,2069,2801,1838,1840,1863
0,255,222,33900,1966,2103,2811,1839,1841,1845
0,255,223,33916,1827,2099,2796,1836,1840,1872
0,255,224,33947,1914,2085,2795,1835,1840,1865
0,255,225,33947,1928,2095,2806,1836,1839,1863
0,255,226,33978,1927,2118,2811,1835,1839,1863
0,255,227,34025,1876,2132,2744,1714,1775,1887
0,255,228,34025,1942,2078,2717,1836,1839,1866
0,255,229,34025,1952,2072,2787,1836,1839,1864
0,255,230,34056,1950,2074,2788,1836,1839,1863
0,255,231,34056,1958,2080,2818,1835,1839,1864
0,255,232,34103,1949,2085,2791,1835,1840,1865
0,255,233,34134,1921,2098,2794,1836,1839,1863
0,255,234,34134,1956,2065,2797,1837,1839,1864
0,255,235,34134,1958,2064,2807,1835,1838,1864
0,255,237,34212,1953,2062,2810,1837,1840,1865
0,255,238,34212,1966,2074,2817,1836,1838,1863
0,255,239,34243,1951,2066,2801,1837,1839,1865
0,255,240,34243,1957,2085,2795,1835,1839,1865
0,255,241,34275,1943,2088,2799,1836,1840,1863
0,255,242,34275,1949,2077,2805,1837,1839,1864
0,255,243,34306,1958,2086,2791,1837,1839,1865
0,255,244,34321,1956,2080,2780,1836,1839,1863
0,255,245,34337,1943,2088,2794,1837,1840,1863
0,255,246,34368,1950,2071,2796,1837,1840,1865
0,255,247,34399,1940,2084,2787,1836,1839,1864
0,255,248,34415,1944,2059,2781,1836,1840,1865
0,255,249,34431,1956,2094,2810,1836,1839,1863
0,255,250,34446,1940,2079,2785,1837,1839,1865
0,255,251,34446,1954,2080,2797,1836,1839,1865
0,255,252,34493,1951,2060,2798,1835,1840,1864
0,255,253,34493,1947,2082,2789,1836,1840,1863
0,255,254,34524,1950,2101,2805,1837,1839,1864
